"rt","correct","stimulus","key_press","keys","symptoms_shuffle","symptom1","symptom2","symptom3","key","category","phase","trial","include","block","trial_type","trial_index","time_elapsed","internal_node_id","ppt","session","abresp"
"2938.3000000000466","false","hexagon,circle,triangle","32","80,81","circle,hexagon,square,triangle,diamond","B","A","D","80","common","training","1","true","1","categorize-html","4","85878","0.0-4.0-0.0","24359","20224414","none"
"4548.300000000047","false","triangle,circle,hexagon","32","80,81","circle,hexagon,square,triangle,diamond","D","A","B","80","common","training","2","true","1","categorize-html","6","91444","0.0-4.0-2.0","24359","20224414","none"
"2825.9000000001397","false","circle,triangle,hexagon","32","80,81","circle,hexagon,square,triangle,diamond","A","D","B","80","common","training","3","true","1","categorize-html","8","95306","0.0-4.0-4.0","24359","20224414","none"
"null","false","triangle,hexagon,circle","null","80,81","circle,hexagon,square,triangle,diamond","D","B","A","80","common","training","4","true","1","categorize-html","10","101352","0.0-4.0-6.0","24359","20224414","none"
"1728","false","hexagon,triangle,circle","32","80,81","circle,hexagon,square,triangle,diamond","B","D","A","80","common","training","5","true","1","categorize-html","12","104117","0.0-4.0-8.0","24359","20224414","none"
"2619.1999999999534","false","square,circle,diamond","32","80,81","circle,hexagon,square,triangle,diamond","C","A","E","81","rare","training","6","true","1","categorize-html","14","107758","0.0-4.0-10.0","24359","20224414","none"
"2754.600000000093","false","triangle,circle,hexagon","32","80,81","circle,hexagon,square,triangle,diamond","D","A","B","80","common","training","7","true","1","categorize-html","16","111532","0.0-4.0-12.0","24359","20224414","none"
"2659.5","false","circle,hexagon,triangle","32","80,81","circle,hexagon,square,triangle,diamond","A","B","D","80","common","training","8","true","1","categorize-html","18","115225","0.0-4.0-14.0","24359","20224414","none"
"2078.399999999907","false","diamond,circle,square","32","80,81","circle,hexagon,square,triangle,diamond","E","A","C","81","rare","training","9","true","1","categorize-html","20","118325","0.0-4.0-16.0","24359","20224414","none"
"2344.3000000000466","false","hexagon,circle,triangle","32","80,81","circle,hexagon,square,triangle,diamond","B","A","D","80","common","training","10","true","1","categorize-html","22","121692","0.0-4.0-18.0","24359","20224414","none"
"2509","false","circle,triangle,hexagon","32","80,81","circle,hexagon,square,triangle,diamond","A","D","B","80","common","training","11","true","1","categorize-html","24","125233","0.0-4.0-20.0","24359","20224414","none"
"2032.5999999998603","false","hexagon,triangle,circle","32","80,81","circle,hexagon,square,triangle,diamond","B","D","A","80","common","training","12","true","1","categorize-html","26","128293","0.0-4.0-22.0","24359","20224414","none"
"2272.0999999998603","false","hexagon,circle,triangle","32","80,81","circle,hexagon,square,triangle,diamond","B","A","D","80","common","training","13","true","1","categorize-html","28","131597","0.0-4.0-24.0","24359","20224414","none"
"2158.8000000000466","false","circle,triangle,hexagon","32","80,81","circle,hexagon,square,triangle,diamond","A","D","B","80","common","training","14","true","1","categorize-html","30","134774","0.0-4.0-26.0","24359","20224414","none"
"2427.5","false","square,diamond,circle","32","80,81","circle,hexagon,square,triangle,diamond","C","E","A","81","rare","training","15","true","1","categorize-html","32","138225","0.0-4.0-28.0","24359","20224414","none"
"1788.5","false","triangle,hexagon,circle","32","80,81","circle,hexagon,square,triangle,diamond","D","B","A","80","common","training","16","true","1","categorize-html","34","141046","0.0-4.0-30.0","24359","20224414","none"
"1954.3000000000466","false","triangle,circle,hexagon","32","80,81","circle,hexagon,square,triangle,diamond","D","A","B","80","common","training","17","true","1","categorize-html","36","144022","0.0-4.0-32.0","24359","20224414","none"
"3287","false","circle,square,diamond","32","80,81","circle,hexagon,square,triangle,diamond","A","C","E","81","rare","training","18","true","1","categorize-html","38","148343","0.0-4.0-34.0","24359","20224414","none"
"3591.100000000093","false","circle,hexagon,triangle","32","80,81","circle,hexagon,square,triangle,diamond","A","B","D","80","common","training","19","true","1","categorize-html","40","152962","0.0-4.0-36.0","24359","20224414","none"
"2784.3000000000466","false","triangle,hexagon,circle","32","80,81","circle,hexagon,square,triangle,diamond","D","B","A","80","common","training","20","true","1","categorize-html","42","156769","0.0-4.0-38.0","24359","20224414","none"
"3237.899999999907","false","diamond,square,circle","32","80,81","circle,hexagon,square,triangle,diamond","E","C","A","81","rare","training","21","true","1","categorize-html","44","161041","0.0-4.0-40.0","24359","20224414","none"
"2245.6999999999534","false","hexagon,triangle,circle","32","80,81","circle,hexagon,square,triangle,diamond","B","D","A","80","common","training","22","true","1","categorize-html","46","164315","0.0-4.0-42.0","24359","20224414","none"
"3000","false","circle,diamond,square","32","80,81","circle,hexagon,square,triangle,diamond","A","E","C","81","rare","training","23","true","1","categorize-html","48","168343","0.0-4.0-44.0","24359","20224414","none"
"3240.9000000001397","false","circle,hexagon,triangle","32","80,81","circle,hexagon,square,triangle,diamond","A","B","D","80","common","training","24","true","1","categorize-html","50","172603","0.0-4.0-46.0","24359","20224414","none"
"3473","false","circle,hexagon,triangle","32","80,81","circle,hexagon,square,triangle,diamond","A","B","D","80","common","training","25","true","2","categorize-html","53","279083","0.0-4.0-49.0","24359","20224414","none"
"3582.6999999999534","false","triangle,hexagon,circle","32","80,81","circle,hexagon,square,triangle,diamond","D","B","A","80","common","training","26","true","2","categorize-html","55","283701","0.0-4.0-51.0","24359","20224414","none"
"1988.8000000000466","false","hexagon,triangle,circle","32","80,81","circle,hexagon,square,triangle,diamond","B","D","A","80","common","training","27","true","2","categorize-html","57","286723","0.0-4.0-53.0","24359","20224414","none"
"820.0999999998603","false","diamond,square,circle","32","80,81","circle,hexagon,square,triangle,diamond","E","C","A","81","rare","training","28","true","2","categorize-html","59","288579","0.0-4.0-55.0","24359","20224414","none"
"1654.8000000000466","false","diamond,circle,square","32","80,81","circle,hexagon,square,triangle,diamond","E","A","C","81","rare","training","29","true","2","categorize-html","61","291269","0.0-4.0-57.0","24359","20224414","none"
"2247.399999999907","false","circle,triangle,hexagon","32","80,81","circle,hexagon,square,triangle,diamond","A","D","B","80","common","training","30","true","2","categorize-html","63","294541","0.0-4.0-59.0","24359","20224414","none"
"1712","false","circle,square,diamond","32","80,81","circle,hexagon,square,triangle,diamond","A","C","E","81","rare","training","31","true","2","categorize-html","65","297287","0.0-4.0-61.0","24359","20224414","none"
"1764.3000000000466","false","hexagon,circle,triangle","32","80,81","circle,hexagon,square,triangle,diamond","B","A","D","80","common","training","32","true","2","categorize-html","67","300082","0.0-4.0-63.0","24359","20224414","none"
"3459.6999999999534","false","triangle,circle,hexagon","32","80,81","circle,hexagon,square,triangle,diamond","D","A","B","80","common","training","33","true","2","categorize-html","69","304574","0.0-4.0-65.0","24359","20224414","none"
"1808.6999999999534","false","square,diamond,circle","32","80,81","circle,hexagon,square,triangle,diamond","C","E","A","81","rare","training","34","true","2","categorize-html","71","307417","0.0-4.0-67.0","24359","20224414","none"
"2491.899999999907","false","circle,hexagon,triangle","32","80,81","circle,hexagon,square,triangle,diamond","A","B","D","80","common","training","35","true","2","categorize-html","73","310931","0.0-4.0-69.0","24359","20224414","none"
"2765.5","false","triangle,hexagon,circle","32","80,81","circle,hexagon,square,triangle,diamond","D","B","A","80","common","training","36","true","2","categorize-html","75","314718","0.0-4.0-71.0","24359","20224414","none"
"2624.399999999907","false","triangle,hexagon,circle","32","80,81","circle,hexagon,square,triangle,diamond","D","B","A","80","common","training","37","true","2","categorize-html","77","318371","0.0-4.0-73.0","24359","20224414","none"
"1103.2000000001863","false","triangle,circle,hexagon","32","80,81","circle,hexagon,square,triangle,diamond","D","A","B","80","common","training","38","true","2","categorize-html","79","320505","0.0-4.0-75.0","24359","20224414","none"
"2598.4000000001397","false","hexagon,triangle,circle","32","80,81","circle,hexagon,square,triangle,diamond","B","D","A","80","common","training","39","true","2","categorize-html","81","324130","0.0-4.0-77.0","24359","20224414","none"
"1679.3999999999069","false","hexagon,circle,triangle","32","80,81","circle,hexagon,square,triangle,diamond","B","A","D","80","common","training","40","true","2","categorize-html","83","326838","0.0-4.0-79.0","24359","20224414","none"
"2615.4000000001397","false","circle,triangle,hexagon","32","80,81","circle,hexagon,square,triangle,diamond","A","D","B","80","common","training","41","true","2","categorize-html","85","330472","0.0-4.0-81.0","24359","20224414","none"
"1062.2000000001863","false","square,circle,diamond","32","80,81","circle,hexagon,square,triangle,diamond","C","A","E","81","rare","training","42","true","2","categorize-html","87","332576","0.0-4.0-83.0","24359","20224414","none"
"591.0999999998603","false","triangle,circle,hexagon","32","80,81","circle,hexagon,square,triangle,diamond","D","A","B","80","common","training","43","true","2","categorize-html","89","334197","0.0-4.0-85.0","24359","20224414","none"
"1497.6999999999534","false","circle,hexagon,triangle","32","80,81","circle,hexagon,square,triangle,diamond","A","B","D","80","common","training","44","true","2","categorize-html","91","336722","0.0-4.0-87.0","24359","20224414","none"
"1213.3999999999069","false","circle,triangle,hexagon","32","80,81","circle,hexagon,square,triangle,diamond","A","D","B","80","common","training","45","true","2","categorize-html","93","338962","0.0-4.0-89.0","24359","20224414","none"
"1818.5999999998603","false","hexagon,circle,triangle","32","80,81","circle,hexagon,square,triangle,diamond","B","A","D","80","common","training","46","true","2","categorize-html","95","341814","0.0-4.0-91.0","24359","20224414","none"
"2883.100000000093","false","circle,diamond,square","32","80,81","circle,hexagon,square,triangle,diamond","A","E","C","81","rare","training","47","true","2","categorize-html","97","345716","0.0-4.0-93.0","24359","20224414","none"
"1662.8999999999069","false","hexagon,triangle,circle","32","80,81","circle,hexagon,square,triangle,diamond","B","D","A","80","common","training","48","true","2","categorize-html","99","348414","0.0-4.0-95.0","24359","20224414","none"
"5459.100000000093","false","hexagon","80","80,81","circle,hexagon,square,triangle,diamond","B","","","","","test","1","true","1","categorize-html","103","386216","0.0-6.0-0.0","24359","20224414","common"
"2250.600000000093","false","square","81","80,81","circle,hexagon,square,triangle,diamond","C","","","","","test","2","true","1","categorize-html","105","389987","0.0-6.0-2.0","24359","20224414","rare"
"3262.100000000093","false","circle,square","81","80,81","circle,hexagon,square,triangle,diamond","A","C","","","","test","3","true","1","categorize-html","107","394780","0.0-6.0-4.0","24359","20224414","rare"
"3780.5999999998603","false","circle,hexagon","80","80,81","circle,hexagon,square,triangle,diamond","A","B","","","","test","4","true","1","categorize-html","109","400089","0.0-6.0-6.0","24359","20224414","common"
"3574.1999999999534","false","circle","80","80,81","circle,hexagon,square,triangle,diamond","A","","","","","test","5","true","1","categorize-html","111","405192","0.0-6.0-8.0","24359","20224414","common"
"2439.1999999999534","false","circle","80","80,81","circle,hexagon,square,triangle,diamond","A","","","","","test","6","true","1","categorize-html","113","409158","0.0-6.0-10.0","24359","20224414","common"
"3825.8000000000466","false","hexagon,circle","81","80,81","circle,hexagon,square,triangle,diamond","B","A","","","","test","7","true","1","categorize-html","115","414513","0.0-6.0-12.0","24359","20224414","rare"
"1891.2000000001863","false","square","80","80,81","circle,hexagon,square,triangle,diamond","C","","","","","test","8","true","1","categorize-html","117","417927","0.0-6.0-14.0","24359","20224414","common"
"1642.5","false","square,hexagon","80","80,81","circle,hexagon,square,triangle,diamond","C","B","","","","test","9","true","1","categorize-html","119","421093","0.0-6.0-16.0","24359","20224414","common"
"1574.8000000000466","false","hexagon,square","81","80,81","circle,hexagon,square,triangle,diamond","B","C","","","","test","10","true","1","categorize-html","121","424193","0.0-6.0-18.0","24359","20224414","rare"
"2116.6999999999534","false","square,circle","80","80,81","circle,hexagon,square,triangle,diamond","C","A","","","","test","11","true","1","categorize-html","123","427841","0.0-6.0-20.0","24359","20224414","common"
"2230.1999999999534","false","hexagon","81","80,81","circle,hexagon,square,triangle,diamond","B","","","","","test","12","true","1","categorize-html","125","431600","0.0-6.0-22.0","24359","20224414","rare"
"2966.7000000001863","false","circle","80","80,81","circle,hexagon,square,triangle,diamond","A","","","","","test","13","true","1","categorize-html","127","436098","0.0-6.0-24.0","24359","20224414","common"
"1527.1999999999534","false","square","80","80,81","circle,hexagon,square,triangle,diamond","C","","","","","test","14","true","1","categorize-html","129","439157","0.0-6.0-26.0","24359","20224414","common"
"2402","false","hexagon,circle","80","80,81","circle,hexagon,square,triangle,diamond","B","A","","","","test","15","true","1","categorize-html","131","443086","0.0-6.0-28.0","24359","20224414","common"
"1426.6999999999534","false","square","80","80,81","circle,hexagon,square,triangle,diamond","C","","","","","test","16","true","1","categorize-html","133","446038","0.0-6.0-30.0","24359","20224414","common"
"7202.199999999953","false","circle,hexagon","80","80,81","circle,hexagon,square,triangle,diamond","A","B","","","","test","17","true","1","categorize-html","135","454769","0.0-6.0-32.0","24359","20224414","common"
"2057.3000000000466","false","square,hexagon","80","80,81","circle,hexagon,square,triangle,diamond","C","B","","","","test","18","true","1","categorize-html","137","458351","0.0-6.0-34.0","24359","20224414","common"
"1564.5999999998603","false","circle,square","81","80,81","circle,hexagon,square,triangle,diamond","A","C","","","","test","19","true","1","categorize-html","139","461453","0.0-6.0-36.0","24359","20224414","rare"
"2413.6999999999534","false","hexagon","81","80,81","circle,hexagon,square,triangle,diamond","B","","","","","test","20","true","1","categorize-html","141","465397","0.0-6.0-38.0","24359","20224414","rare"
"928.5","false","square,circle","80","80,81","circle,hexagon,square,triangle,diamond","C","A","","","","test","21","true","1","categorize-html","143","467859","0.0-6.0-40.0","24359","20224414","common"
"2341.2999999998137","false","circle","80","80,81","circle,hexagon,square,triangle,diamond","A","","","","","test","22","true","1","categorize-html","145","471729","0.0-6.0-42.0","24359","20224414","common"
"1299.2999999998137","false","hexagon,square","80","80,81","circle,hexagon,square,triangle,diamond","B","C","","","","test","23","true","1","categorize-html","147","474563","0.0-6.0-44.0","24359","20224414","common"
"2568.5999999998603","false","hexagon","81","80,81","circle,hexagon,square,triangle,diamond","B","","","","","test","24","true","1","categorize-html","149","478652","0.0-6.0-46.0","24359","20224414","rare"
"3035.6999999999534","false","square,circle","80","80,81","circle,hexagon,square,triangle,diamond","C","A","","","","test","25","true","1","categorize-html","152","486134","0.0-6.0-49.0","24359","20224414","common"
"3493","false","hexagon,square","81","80,81","circle,hexagon,square,triangle,diamond","B","C","","","","test","26","true","1","categorize-html","154","491165","0.0-6.0-51.0","24359","20224414","rare"
"2406.5999999998603","false","hexagon","80","80,81","circle,hexagon,square,triangle,diamond","B","","","","","test","27","true","1","categorize-html","156","495097","0.0-6.0-53.0","24359","20224414","common"
"1231","false","square","80","80,81","circle,hexagon,square,triangle,diamond","C","","","","","test","28","true","1","categorize-html","158","497853","0.0-6.0-55.0","24359","20224414","common"
"1823.5","false","square","80","80,81","circle,hexagon,square,triangle,diamond","C","","","","","test","29","true","1","categorize-html","160","501208","0.0-6.0-57.0","24359","20224414","common"
"1526.8000000000466","false","circle,square","81","80,81","circle,hexagon,square,triangle,diamond","A","C","","","","test","30","true","1","categorize-html","162","504268","0.0-6.0-59.0","24359","20224414","rare"
"1197.8000000000466","false","circle","80","80,81","circle,hexagon,square,triangle,diamond","A","","","","","test","31","true","1","categorize-html","164","506993","0.0-6.0-61.0","24359","20224414","common"
"594.6999999999534","false","hexagon,circle","80","80,81","circle,hexagon,square,triangle,diamond","B","A","","","","test","32","true","1","categorize-html","166","509116","0.0-6.0-63.0","24359","20224414","common"
"1933.5","false","circle","80","80,81","circle,hexagon,square,triangle,diamond","A","","","","","test","33","true","1","categorize-html","168","512579","0.0-6.0-65.0","24359","20224414","common"
"998.6999999999534","false","square,hexagon","80","80,81","circle,hexagon,square,triangle,diamond","C","B","","","","test","34","true","1","categorize-html","170","515108","0.0-6.0-67.0","24359","20224414","common"
"1622.7999999998137","false","hexagon","80","80,81","circle,hexagon,square,triangle,diamond","B","","","","","test","35","true","1","categorize-html","172","518259","0.0-6.0-69.0","24359","20224414","common"
"936.3000000000466","false","circle,hexagon","80","80,81","circle,hexagon,square,triangle,diamond","A","B","","","","test","36","true","1","categorize-html","174","520723","0.0-6.0-71.0","24359","20224414","common"
"955.2999999998137","false","circle,square","80","80,81","circle,hexagon,square,triangle,diamond","A","C","","","","test","37","true","1","categorize-html","176","523204","0.0-6.0-73.0","24359","20224414","common"
"1408.9000000001397","false","hexagon","80","80,81","circle,hexagon,square,triangle,diamond","B","","","","","test","38","true","1","categorize-html","178","526139","0.0-6.0-75.0","24359","20224414","common"
"5432.899999999907","false","square","80","80,81","circle,hexagon,square,triangle,diamond","C","","","","","test","39","true","1","categorize-html","180","533105","0.0-6.0-77.0","24359","20224414","common"
"1078.8999999999069","false","square,circle","80","80,81","circle,hexagon,square,triangle,diamond","C","A","","","","test","40","true","1","categorize-html","182","535707","0.0-6.0-79.0","24359","20224414","common"
"1328.7999999998137","false","circle","80","80,81","circle,hexagon,square,triangle,diamond","A","","","","","test","41","true","1","categorize-html","184","538560","0.0-6.0-81.0","24359","20224414","common"
"2672.2000000001863","false","square,hexagon","81","80,81","circle,hexagon,square,triangle,diamond","C","B","","","","test","42","true","1","categorize-html","186","542764","0.0-6.0-83.0","24359","20224414","rare"
"1016.8000000000466","false","hexagon,square","81","80,81","circle,hexagon,square,triangle,diamond","B","C","","","","test","43","true","1","categorize-html","188","545310","0.0-6.0-85.0","24359","20224414","rare"
"821.2000000001863","false","square","80","80,81","circle,hexagon,square,triangle,diamond","C","","","","","test","44","true","1","categorize-html","190","547662","0.0-6.0-87.0","24359","20224414","common"
"1740.8999999999069","false","circle,hexagon","81","80,81","circle,hexagon,square,triangle,diamond","A","B","","","","test","45","true","1","categorize-html","192","550941","0.0-6.0-89.0","24359","20224414","rare"
"943.8999999999069","false","hexagon","80","80,81","circle,hexagon,square,triangle,diamond","B","","","","","test","46","true","1","categorize-html","194","553421","0.0-6.0-91.0","24359","20224414","common"
"1311.1999999999534","false","hexagon,circle","81","80,81","circle,hexagon,square,triangle,diamond","B","A","","","","test","47","true","1","categorize-html","196","556250","0.0-6.0-93.0","24359","20224414","rare"
"1532.9000000001397","false","circle","80","80,81","circle,hexagon,square,triangle,diamond","A","","","","","test","48","true","1","categorize-html","198","559307","0.0-6.0-95.0","24359","20224414","common"
"1573.1999999999534","false","circle","80","80,81","circle,hexagon,square,triangle,diamond","A","","","","","test","49","true","1","categorize-html","201","639092","0.0-6.0-98.0","24359","20224414","common"
"1050","false","circle","80","80,81","circle,hexagon,square,triangle,diamond","A","","","","","test","50","true","1","categorize-html","203","641652","0.0-6.0-100.0","24359","20224414","common"
"806.4000000001397","false","square,hexagon","80","80,81","circle,hexagon,square,triangle,diamond","C","B","","","","test","51","true","1","categorize-html","205","643991","0.0-6.0-102.0","24359","20224414","common"
"1987","false","hexagon","80","80,81","circle,hexagon,square,triangle,diamond","B","","","","","test","52","true","1","categorize-html","207","647497","0.0-6.0-104.0","24359","20224414","common"
"1026.5","false","square","80","80,81","circle,hexagon,square,triangle,diamond","C","","","","","test","53","true","1","categorize-html","209","650043","0.0-6.0-106.0","24359","20224414","common"
"823.5","false","square","80","80,81","circle,hexagon,square,triangle,diamond","C","","","","","test","54","true","1","categorize-html","211","652392","0.0-6.0-108.0","24359","20224414","common"
"892.1999999999534","false","square,circle","80","80,81","circle,hexagon,square,triangle,diamond","C","A","","","","test","55","true","1","categorize-html","213","654808","0.0-6.0-110.0","24359","20224414","common"
"1886.9000000001397","false","hexagon","81","80,81","circle,hexagon,square,triangle,diamond","B","","","","","test","56","true","1","categorize-html","215","658221","0.0-6.0-112.0","24359","20224414","rare"
"877.5","false","hexagon,circle","80","80,81","circle,hexagon,square,triangle,diamond","B","A","","","","test","57","true","1","categorize-html","217","660626","0.0-6.0-114.0","24359","20224414","common"
"1294.1999999999534","false","circle,square","80","80,81","circle,hexagon,square,triangle,diamond","A","C","","","","test","58","true","1","categorize-html","219","663445","0.0-6.0-116.0","24359","20224414","common"
"1533.3999999999069","false","circle,hexagon","81","80,81","circle,hexagon,square,triangle,diamond","A","B","","","","test","59","true","1","categorize-html","221","666502","0.0-6.0-118.0","24359","20224414","rare"
"688.2999999998137","false","hexagon,square","80","80,81","circle,hexagon,square,triangle,diamond","B","C","","","","test","60","true","1","categorize-html","223","668717","0.0-6.0-120.0","24359","20224414","common"
"632.1000000000931","false","square","80","80,81","circle,hexagon,square,triangle,diamond","C","","","","","test","61","true","1","categorize-html","225","670868","0.0-6.0-122.0","24359","20224414","common"
"869.5999999998603","false","circle","80","80,81","circle,hexagon,square,triangle,diamond","A","","","","","test","62","true","1","categorize-html","227","673266","0.0-6.0-124.0","24359","20224414","common"
"1124.5","false","circle","80","80,81","circle,hexagon,square,triangle,diamond","A","","","","","test","63","true","1","categorize-html","229","675920","0.0-6.0-126.0","24359","20224414","common"
"689.9000000001397","false","square","80","80,81","circle,hexagon,square,triangle,diamond","C","","","","","test","64","true","1","categorize-html","231","678134","0.0-6.0-128.0","24359","20224414","common"
"1410.6000000000931","false","square,hexagon","81","80,81","circle,hexagon,square,triangle,diamond","C","B","","","","test","65","true","1","categorize-html","233","681074","0.0-6.0-130.0","24359","20224414","rare"
"908.5","false","hexagon,square","81","80,81","circle,hexagon,square,triangle,diamond","B","C","","","","test","66","true","1","categorize-html","235","683507","0.0-6.0-132.0","24359","20224414","rare"
"769.7999999998137","false","circle,square","80","80,81","circle,hexagon,square,triangle,diamond","A","C","","","","test","67","true","1","categorize-html","237","685802","0.0-6.0-134.0","24359","20224414","common"
"1147.3999999999069","false","hexagon","81","80,81","circle,hexagon,square,triangle,diamond","B","","","","","test","68","true","1","categorize-html","239","688472","0.0-6.0-136.0","24359","20224414","rare"
"805.6999999999534","false","square,circle","80","80,81","circle,hexagon,square,triangle,diamond","C","A","","","","test","69","true","1","categorize-html","241","690798","0.0-6.0-138.0","24359","20224414","common"
"834.3000000000466","false","circle,hexagon","80","80,81","circle,hexagon,square,triangle,diamond","A","B","","","","test","70","true","1","categorize-html","243","693156","0.0-6.0-140.0","24359","20224414","common"
"1273.0999999998603","false","hexagon,circle","80","80,81","circle,hexagon,square,triangle,diamond","B","A","","","","test","71","true","1","categorize-html","245","695953","0.0-6.0-142.0","24359","20224414","common"
"2096.899999999907","false","hexagon","81","80,81","circle,hexagon,square,triangle,diamond","B","","","","","test","72","true","1","categorize-html","247","699568","0.0-6.0-144.0","24359","20224414","rare"
"3534.5","false","circle","80","80,81","circle,hexagon,square,triangle,diamond","A","","","","","test","73","true","1","categorize-html","250","932294","0.0-6.0-147.0","24359","20224414","common"
"671.6999999997206","false","circle","80","80,81","circle,hexagon,square,triangle,diamond","A","","","","","test","74","true","1","categorize-html","252","934492","0.0-6.0-149.0","24359","20224414","common"
"1129.3000000002794","false","circle,hexagon","80","80,81","circle,hexagon,square,triangle,diamond","A","B","","","","test","75","true","1","categorize-html","254","937142","0.0-6.0-151.0","24359","20224414","common"
"2796.2999999998137","false","hexagon","81","80,81","circle,hexagon,square,triangle,diamond","B","","","","","test","76","true","1","categorize-html","256","941465","0.0-6.0-153.0","24359","20224414","rare"
"855","false","circle,square","80","80,81","circle,hexagon,square,triangle,diamond","A","C","","","","test","77","true","1","categorize-html","258","943851","0.0-6.0-155.0","24359","20224414","common"
"1009","false","square","80","80,81","circle,hexagon,square,triangle,diamond","C","","","","","test","78","true","1","categorize-html","260","946398","0.0-6.0-157.0","24359","20224414","common"
"2027.7000000001863","false","hexagon,square","81","80,81","circle,hexagon,square,triangle,diamond","B","C","","","","test","79","true","1","categorize-html","262","949951","0.0-6.0-159.0","24359","20224414","rare"
"1417.7000000001863","false","hexagon","81","80,81","circle,hexagon,square,triangle,diamond","B","","","","","test","80","true","1","categorize-html","264","952897","0.0-6.0-161.0","24359","20224414","rare"
"3372.7999999998137","false","square,circle","80","80,81","circle,hexagon,square,triangle,diamond","C","A","","","","test","81","true","1","categorize-html","266","957804","0.0-6.0-163.0","24359","20224414","common"
"938","false","square,hexagon","80","80,81","circle,hexagon,square,triangle,diamond","C","B","","","","test","82","true","1","categorize-html","268","960268","0.0-6.0-165.0","24359","20224414","common"
"1283.6000000000931","false","square","80","80,81","circle,hexagon,square,triangle,diamond","C","","","","","test","83","true","1","categorize-html","270","963075","0.0-6.0-167.0","24359","20224414","common"
"827.1000000000931","false","hexagon,circle","80","80,81","circle,hexagon,square,triangle,diamond","B","A","","","","test","84","true","1","categorize-html","272","965434","0.0-6.0-169.0","24359","20224414","common"
"2972.5","false","hexagon","81","80,81","circle,hexagon,square,triangle,diamond","B","","","","","test","85","true","1","categorize-html","274","969940","0.0-6.0-171.0","24359","20224414","rare"
"1358.7999999998137","false","hexagon,square","81","80,81","circle,hexagon,square,triangle,diamond","B","C","","","","test","86","true","1","categorize-html","276","972827","0.0-6.0-173.0","24359","20224414","rare"
"1871.5","false","square","80","80,81","circle,hexagon,square,triangle,diamond","C","","","","","test","87","true","1","categorize-html","278","976227","0.0-6.0-175.0","24359","20224414","common"
"1207.4000000003725","false","square,circle","80","80,81","circle,hexagon,square,triangle,diamond","C","A","","","","test","88","true","1","categorize-html","280","978958","0.0-6.0-177.0","24359","20224414","common"
"1774.9000000003725","false","circle,square","80","80,81","circle,hexagon,square,triangle,diamond","A","C","","","","test","89","true","1","categorize-html","282","982261","0.0-6.0-179.0","24359","20224414","common"
"2975.9000000003725","false","circle,hexagon","81","80,81","circle,hexagon,square,triangle,diamond","A","B","","","","test","90","true","1","categorize-html","284","986774","0.0-6.0-181.0","24359","20224414","rare"
"1264.1000000000931","false","circle","80","80,81","circle,hexagon,square,triangle,diamond","A","","","","","test","91","true","1","categorize-html","286","989563","0.0-6.0-183.0","24359","20224414","common"
"1510","false","circle","80","80,81","circle,hexagon,square,triangle,diamond","A","","","","","test","92","true","1","categorize-html","288","992592","0.0-6.0-185.0","24359","20224414","common"
"1020.1000000000931","false","hexagon,circle","81","80,81","circle,hexagon,square,triangle,diamond","B","A","","","","test","93","true","1","categorize-html","290","995136","0.0-6.0-187.0","24359","20224414","rare"
"1510.2000000001863","false","hexagon","81","80,81","circle,hexagon,square,triangle,diamond","B","","","","","test","94","true","1","categorize-html","292","998178","0.0-6.0-189.0","24359","20224414","rare"
"653.7999999998137","false","square,hexagon","80","80,81","circle,hexagon,square,triangle,diamond","C","B","","","","test","95","true","1","categorize-html","294","1000366","0.0-6.0-191.0","24359","20224414","common"
"912.4000000003725","false","square","80","80,81","circle,hexagon,square,triangle,diamond","C","","","","","test","96","true","1","categorize-html","296","1002808","0.0-6.0-193.0","24359","20224414","common"
"1241.6000000000931","false","circle","80","80,81","circle,hexagon,square,triangle,diamond","A","","","","","test","97","true","1","categorize-html","299","1007257","0.0-6.0-196.0","24359","20224414","common"
"816.5","false","square,hexagon","81","80,81","circle,hexagon,square,triangle,diamond","C","B","","","","test","98","true","1","categorize-html","301","1009597","0.0-6.0-198.0","24359","20224414","rare"
"1699.5","false","square,circle","80","80,81","circle,hexagon,square,triangle,diamond","C","A","","","","test","99","true","1","categorize-html","303","1012823","0.0-6.0-200.0","24359","20224414","common"
"1179.5","false","circle","81","80,81","circle,hexagon,square,triangle,diamond","A","","","","","test","100","true","1","categorize-html","305","1015534","0.0-6.0-202.0","24359","20224414","rare"
"1169.3999999999069","false","hexagon,square","80","80,81","circle,hexagon,square,triangle,diamond","B","C","","","","test","101","true","1","categorize-html","307","1018229","0.0-6.0-204.0","24359","20224414","common"
"1070.8999999999069","false","circle,hexagon","81","80,81","circle,hexagon,square,triangle,diamond","A","B","","","","test","102","true","1","categorize-html","309","1020834","0.0-6.0-206.0","24359","20224414","rare"
"1357.7999999998137","false","hexagon","81","80,81","circle,hexagon,square,triangle,diamond","B","","","","","test","103","true","1","categorize-html","311","1023715","0.0-6.0-208.0","24359","20224414","rare"
"850","false","circle,square","80","80,81","circle,hexagon,square,triangle,diamond","A","C","","","","test","104","true","1","categorize-html","313","1026087","0.0-6.0-210.0","24359","20224414","common"
"1126.8999999999069","false","hexagon","81","80,81","circle,hexagon,square,triangle,diamond","B","","","","","test","105","true","1","categorize-html","315","1028740","0.0-6.0-212.0","24359","20224414","rare"
"1719.7000000001863","false","hexagon,circle","81","80,81","circle,hexagon,square,triangle,diamond","B","A","","","","test","106","true","1","categorize-html","317","1031988","0.0-6.0-214.0","24359","20224414","rare"
"2640.5999999996275","false","square","80","80,81","circle,hexagon,square,triangle,diamond","C","","","","","test","107","true","1","categorize-html","319","1036148","0.0-6.0-216.0","24359","20224414","common"
"1530.8000000002794","false","square","80","80,81","circle,hexagon,square,triangle,diamond","C","","","","","test","108","true","1","categorize-html","321","1039197","0.0-6.0-218.0","24359","20224414","common"
"1201.7000000001863","false","square,circle","80","80,81","circle,hexagon,square,triangle,diamond","C","A","","","","test","109","true","1","categorize-html","323","1041921","0.0-6.0-220.0","24359","20224414","common"
"904.3999999999069","false","circle,hexagon","81","80,81","circle,hexagon,square,triangle,diamond","A","B","","","","test","110","true","1","categorize-html","325","1044353","0.0-6.0-222.0","24359","20224414","rare"
"1099.1000000000931","false","circle","80","80,81","circle,hexagon,square,triangle,diamond","A","","","","","test","111","true","1","categorize-html","327","1046984","0.0-6.0-224.0","24359","20224414","common"
"3310.600000000093","false","hexagon","81","80,81","circle,hexagon,square,triangle,diamond","B","","","","","test","112","true","1","categorize-html","329","1051817","0.0-6.0-226.0","24359","20224414","rare"
"3214.100000000093","false","square,hexagon","81","80,81","circle,hexagon,square,triangle,diamond","C","B","","","","test","113","true","1","categorize-html","331","1056559","0.0-6.0-228.0","24359","20224414","rare"
"1591.5","false","circle","80","80,81","circle,hexagon,square,triangle,diamond","A","","","","","test","114","true","1","categorize-html","333","1059680","0.0-6.0-230.0","24359","20224414","common"
"2281","false","hexagon","81","80,81","circle,hexagon,square,triangle,diamond","B","","","","","test","115","true","1","categorize-html","335","1063483","0.0-6.0-232.0","24359","20224414","rare"
"1474.1000000000931","false","hexagon,square","81","80,81","circle,hexagon,square,triangle,diamond","B","C","","","","test","116","true","1","categorize-html","337","1066475","0.0-6.0-234.0","24359","20224414","rare"
"1310.1000000000931","false","square","80","80,81","circle,hexagon,square,triangle,diamond","C","","","","","test","117","true","1","categorize-html","339","1069313","0.0-6.0-236.0","24359","20224414","common"
"1700","false","circle,square","80","80,81","circle,hexagon,square,triangle,diamond","A","C","","","","test","118","true","1","categorize-html","341","1072539","0.0-6.0-238.0","24359","20224414","common"
"1639.6000000000931","false","hexagon,circle","81","80,81","circle,hexagon,square,triangle,diamond","B","A","","","","test","119","true","1","categorize-html","343","1075703","0.0-6.0-240.0","24359","20224414","rare"
"2999.7999999998137","false","square","80","80,81","circle,hexagon,square,triangle,diamond","C","","","","","test","120","true","1","categorize-html","345","1080234","0.0-6.0-242.0","24359","20224414","common"
