"rt","correct","stimulus","key_press","keys","symptoms_shuffle","symptom1","symptom2","symptom3","key","category","phase","trial","include","block","trial_type","trial_index","time_elapsed","internal_node_id","ppt","session","abresp"
"4194.099999904633","false","circle,hexagon,square","32","81,80","hexagon,circle,triangle,square,diamond","B","A","D","81","common","training","1","true","1","categorize-html","4","33559","0.0-4.0-0.0","23210","202232920","none"
"1602.9000000953674","false","square,circle,hexagon","32","81,80","hexagon,circle,triangle,square,diamond","D","B","A","81","common","training","2","true","1","categorize-html","6","36193","0.0-4.0-2.0","23210","202232920","none"
"1309.7000002861023","false","hexagon,square,circle","32","81,80","hexagon,circle,triangle,square,diamond","A","D","B","81","common","training","3","true","1","categorize-html","8","38525","0.0-4.0-4.0","23210","202232920","none"
"857.9000000953674","false","circle,hexagon,square","32","81,80","hexagon,circle,triangle,square,diamond","B","A","D","81","common","training","4","true","1","categorize-html","10","40394","0.0-4.0-6.0","23210","202232920","none"
"1152.8000001907349","false","square,circle,hexagon","32","81,80","hexagon,circle,triangle,square,diamond","D","B","A","81","common","training","5","true","1","categorize-html","12","42573","0.0-4.0-8.0","23210","202232920","none"
"2783.0999999046326","false","triangle,hexagon,diamond","32","81,80","hexagon,circle,triangle,square,diamond","C","A","E","80","rare","training","6","true","1","categorize-html","14","46365","0.0-4.0-10.0","23210","202232920","none"
"1400","false","hexagon,circle,square","32","81,80","hexagon,circle,triangle,square,diamond","A","B","D","81","common","training","7","true","1","categorize-html","16","48781","0.0-4.0-12.0","23210","202232920","none"
"829.5","false","square,hexagon,circle","32","81,80","hexagon,circle,triangle,square,diamond","D","A","B","81","common","training","8","true","1","categorize-html","18","50630","0.0-4.0-14.0","23210","202232920","none"
"1131.0999999046326","false","diamond,hexagon,triangle","32","81,80","hexagon,circle,triangle,square,diamond","E","A","C","80","rare","training","9","true","1","categorize-html","20","52794","0.0-4.0-16.0","23210","202232920","none"
"1028.7999997138977","false","square,circle,hexagon","32","81,80","hexagon,circle,triangle,square,diamond","D","B","A","81","common","training","10","true","1","categorize-html","22","54836","0.0-4.0-18.0","23210","202232920","none"
"503.19999980926514","false","hexagon,circle,square","32","81,80","hexagon,circle,triangle,square,diamond","A","B","D","81","common","training","11","true","1","categorize-html","24","56376","0.0-4.0-20.0","23210","202232920","none"
"1062.7000002861023","false","circle,hexagon,square","32","81,80","hexagon,circle,triangle,square,diamond","B","A","D","81","common","training","12","true","1","categorize-html","26","58457","0.0-4.0-22.0","23210","202232920","none"
"397.40000009536743","false","triangle,diamond,hexagon","32","81,80","hexagon,circle,triangle,square,diamond","C","E","A","80","rare","training","13","true","1","categorize-html","28","59862","0.0-4.0-24.0","23210","202232920","none"
"557.5","false","square,hexagon,circle","32","81,80","hexagon,circle,triangle,square,diamond","D","A","B","81","common","training","14","true","1","categorize-html","30","61435","0.0-4.0-26.0","23210","202232920","none"
"542.0999999046326","false","circle,square,hexagon","32","81,80","hexagon,circle,triangle,square,diamond","B","D","A","81","common","training","15","true","1","categorize-html","32","63018","0.0-4.0-28.0","23210","202232920","none"
"388.80000019073486","false","circle,square,hexagon","32","81,80","hexagon,circle,triangle,square,diamond","B","D","A","81","common","training","16","true","1","categorize-html","34","64442","0.0-4.0-30.0","23210","202232920","none"
"980.2000002861023","false","circle,square,hexagon","32","81,80","hexagon,circle,triangle,square,diamond","B","D","A","81","common","training","17","true","1","categorize-html","36","66453","0.0-4.0-32.0","23210","202232920","none"
"537.1000003814697","false","hexagon,circle,square","32","81,80","hexagon,circle,triangle,square,diamond","A","B","D","81","common","training","18","true","1","categorize-html","38","68011","0.0-4.0-34.0","23210","202232920","none"
"404.90000009536743","false","diamond,triangle,hexagon","32","81,80","hexagon,circle,triangle,square,diamond","E","C","A","80","rare","training","19","true","1","categorize-html","40","69436","0.0-4.0-36.0","23210","202232920","none"
"672.3000001907349","false","hexagon,square,circle","32","81,80","hexagon,circle,triangle,square,diamond","A","D","B","81","common","training","20","true","1","categorize-html","42","71123","0.0-4.0-38.0","23210","202232920","none"
"737","false","square,hexagon,circle","32","81,80","hexagon,circle,triangle,square,diamond","D","A","B","81","common","training","21","true","1","categorize-html","44","72882","0.0-4.0-40.0","23210","202232920","none"
"372.30000019073486","false","hexagon,square,circle","32","81,80","hexagon,circle,triangle,square,diamond","A","D","B","81","common","training","22","true","1","categorize-html","46","74269","0.0-4.0-42.0","23210","202232920","none"
"432.09999990463257","false","hexagon,triangle,diamond","32","81,80","hexagon,circle,triangle,square,diamond","A","C","E","80","rare","training","23","true","1","categorize-html","48","75733","0.0-4.0-44.0","23210","202232920","none"
"361.09999990463257","false","hexagon,diamond,triangle","32","81,80","hexagon,circle,triangle,square,diamond","A","E","C","80","rare","training","24","true","1","categorize-html","50","77109","0.0-4.0-46.0","23210","202232920","none"
"7766.599999904633","false","triangle,circle","81","81,80","hexagon,circle,triangle,square,diamond","C","B","","","","test","1","true","1","categorize-html","54","111757","0.0-6.0-0.0","23210","202232920","common"
"4885.39999961853","false","circle,triangle","81","81,80","hexagon,circle,triangle,square,diamond","B","C","","","","test","2","true","1","categorize-html","56","118154","0.0-6.0-2.0","23210","202232920","common"
"9640.800000190735","false","hexagon,triangle","81","81,80","hexagon,circle,triangle,square,diamond","A","C","","","","test","3","true","1","categorize-html","58","129326","0.0-6.0-4.0","23210","202232920","common"
"2363.2000002861023","false","hexagon","81","81,80","hexagon,circle,triangle,square,diamond","A","","","","","test","4","true","1","categorize-html","60","133214","0.0-6.0-6.0","23210","202232920","common"
"2077.800000190735","false","circle","81","81,80","hexagon,circle,triangle,square,diamond","B","","","","","test","5","true","1","categorize-html","62","136826","0.0-6.0-8.0","23210","202232920","common"
"1557.1999998092651","false","circle","81","81,80","hexagon,circle,triangle,square,diamond","B","","","","","test","6","true","1","categorize-html","64","139906","0.0-6.0-10.0","23210","202232920","common"
"1710.2999997138977","false","hexagon,circle","81","81,80","hexagon,circle,triangle,square,diamond","A","B","","","","test","7","true","1","categorize-html","66","143152","0.0-6.0-12.0","23210","202232920","common"
"1359.9000000953674","false","triangle","81","81,80","hexagon,circle,triangle,square,diamond","C","","","","","test","8","true","1","categorize-html","68","146022","0.0-6.0-14.0","23210","202232920","common"
"1079.2000002861023","false","triangle","81","81,80","hexagon,circle,triangle,square,diamond","C","","","","","test","9","true","1","categorize-html","70","148629","0.0-6.0-16.0","23210","202232920","common"
"1451.5","false","hexagon","81","81,80","hexagon,circle,triangle,square,diamond","A","","","","","test","10","true","1","categorize-html","72","151603","0.0-6.0-18.0","23210","202232920","common"
"733.8000001907349","false","circle,hexagon","81","81,80","hexagon,circle,triangle,square,diamond","B","A","","","","test","11","true","1","categorize-html","74","153860","0.0-6.0-20.0","23210","202232920","common"
"984.0999999046326","false","triangle,hexagon","81","81,80","hexagon,circle,triangle,square,diamond","C","A","","","","test","12","true","1","categorize-html","76","156368","0.0-6.0-22.0","23210","202232920","common"
"1360","false","circle,triangle","81","81,80","hexagon,circle,triangle,square,diamond","B","C","","","","test","13","true","1","categorize-html","78","159242","0.0-6.0-24.0","23210","202232920","common"
"2174.2000002861023","false","circle,hexagon","81","81,80","hexagon,circle,triangle,square,diamond","B","A","","","","test","14","true","1","categorize-html","80","162925","0.0-6.0-26.0","23210","202232920","common"
"865.5","false","triangle","81","81,80","hexagon,circle,triangle,square,diamond","C","","","","","test","15","true","1","categorize-html","82","165324","0.0-6.0-28.0","23210","202232920","common"
"1284.5","false","triangle","81","81,80","hexagon,circle,triangle,square,diamond","C","","","","","test","16","true","1","categorize-html","84","168131","0.0-6.0-30.0","23210","202232920","common"
"7648.299999713898","false","hexagon","81","81,80","hexagon,circle,triangle,square,diamond","A","","","","","test","17","true","1","categorize-html","86","177294","0.0-6.0-32.0","23210","202232920","common"
"null","false","hexagon,circle","null","81,80","hexagon,circle,triangle,square,diamond","A","B","","","","test","18","true","1","categorize-html","88","188844","0.0-6.0-34.0","23210","202232920","none"
"1897.5999999046326","false","hexagon,triangle","81","81,80","hexagon,circle,triangle,square,diamond","A","C","","","","test","19","true","1","categorize-html","90","192250","0.0-6.0-36.0","23210","202232920","common"
"1064.6000003814697","false","circle","81","81,80","hexagon,circle,triangle,square,diamond","B","","","","","test","20","true","1","categorize-html","92","194832","0.0-6.0-38.0","23210","202232920","common"
"970.4000000953674","false","circle","81","81,80","hexagon,circle,triangle,square,diamond","B","","","","","test","21","true","1","categorize-html","94","197324","0.0-6.0-40.0","23210","202232920","common"
"3200.0999999046326","false","triangle,hexagon","81","81,80","hexagon,circle,triangle,square,diamond","C","A","","","","test","22","true","1","categorize-html","96","202043","0.0-6.0-42.0","23210","202232920","common"
"1162.4000000953674","false","hexagon","81","81,80","hexagon,circle,triangle,square,diamond","A","","","","","test","23","true","1","categorize-html","98","204724","0.0-6.0-44.0","23210","202232920","common"
"663.3000001907349","false","triangle,circle","81","81,80","hexagon,circle,triangle,square,diamond","C","B","","","","test","24","true","1","categorize-html","100","206899","0.0-6.0-46.0","23210","202232920","common"
"2171.9000000953674","false","triangle,circle","81","81,80","hexagon,circle,triangle,square,diamond","C","B","","","","test","25","true","1","categorize-html","103","285055","0.0-6.0-49.0","23210","202232920","common"
"484.59999990463257","false","hexagon,circle","81","81,80","hexagon,circle,triangle,square,diamond","A","B","","","","test","26","true","1","categorize-html","105","287053","0.0-6.0-51.0","23210","202232920","common"
"511.2999997138977","false","hexagon,triangle","81","81,80","hexagon,circle,triangle,square,diamond","A","C","","","","test","27","true","1","categorize-html","107","289088","0.0-6.0-53.0","23210","202232920","common"
"498.1000003814697","false","circle","81","81,80","hexagon,circle,triangle,square,diamond","B","","","","","test","28","true","1","categorize-html","109","291100","0.0-6.0-55.0","23210","202232920","common"
"361.5","false","circle","81","81,80","hexagon,circle,triangle,square,diamond","B","","","","","test","29","true","1","categorize-html","111","292986","0.0-6.0-57.0","23210","202232920","common"
"123.40000009536743","false","triangle","81","81,80","hexagon,circle,triangle,square,diamond","C","","","","","test","30","true","1","categorize-html","113","294631","0.0-6.0-59.0","23210","202232920","common"
"228.2000002861023","false","circle,triangle","81","81,80","hexagon,circle,triangle,square,diamond","B","C","","","","test","31","true","1","categorize-html","115","296379","0.0-6.0-61.0","23210","202232920","common"
"345.90000009536743","false","circle,hexagon","81","81,80","hexagon,circle,triangle,square,diamond","B","A","","","","test","32","true","1","categorize-html","117","298241","0.0-6.0-63.0","23210","202232920","common"
"195.90000009536743","false","triangle,hexagon","81","81,80","hexagon,circle,triangle,square,diamond","C","A","","","","test","33","true","1","categorize-html","119","299964","0.0-6.0-65.0","23210","202232920","common"
"85.19999980926514","false","triangle","81","81,80","hexagon,circle,triangle,square,diamond","C","","","","","test","34","true","1","categorize-html","121","301576","0.0-6.0-67.0","23210","202232920","common"
"227.2000002861023","false","hexagon","81","81,80","hexagon,circle,triangle,square,diamond","A","","","","","test","35","true","1","categorize-html","123","303338","0.0-6.0-69.0","23210","202232920","common"
"283.40000009536743","false","hexagon","81","81,80","hexagon,circle,triangle,square,diamond","A","","","","","test","36","true","1","categorize-html","125","305149","0.0-6.0-71.0","23210","202232920","common"
"56.80000019073486","false","circle,hexagon","81","81,80","hexagon,circle,triangle,square,diamond","B","A","","","","test","37","true","1","categorize-html","127","306735","0.0-6.0-73.0","23210","202232920","common"
"255.59999990463257","false","hexagon,triangle","81","81,80","hexagon,circle,triangle,square,diamond","A","C","","","","test","38","true","1","categorize-html","129","308513","0.0-6.0-75.0","23210","202232920","common"
"77.30000019073486","false","hexagon,circle","81","81,80","hexagon,circle,triangle,square,diamond","A","B","","","","test","39","true","1","categorize-html","131","310097","0.0-6.0-77.0","23210","202232920","common"
"244.2000002861023","false","triangle,circle","81","81,80","hexagon,circle,triangle,square,diamond","C","B","","","","test","40","true","1","categorize-html","133","311851","0.0-6.0-79.0","23210","202232920","common"
"47.09999990463257","false","triangle","81","81,80","hexagon,circle,triangle,square,diamond","C","","","","","test","41","true","1","categorize-html","135","313404","0.0-6.0-81.0","23210","202232920","common"
"625.1999998092651","false","hexagon","81","81,80","hexagon,circle,triangle,square,diamond","A","","","","","test","42","true","1","categorize-html","137","315555","0.0-6.0-83.0","23210","202232920","common"
"1369","false","hexagon","81","81,80","hexagon,circle,triangle,square,diamond","A","","","","","test","43","true","1","categorize-html","139","318439","0.0-6.0-85.0","23210","202232920","common"
"1182.5","false","triangle,hexagon","81","81,80","hexagon,circle,triangle,square,diamond","C","A","","","","test","44","true","1","categorize-html","141","321144","0.0-6.0-87.0","23210","202232920","common"
"1365.0999999046326","false","circle","81","81,80","hexagon,circle,triangle,square,diamond","B","","","","","test","45","true","1","categorize-html","143","324032","0.0-6.0-89.0","23210","202232920","common"
"1563.2999997138977","false","circle,triangle","81","81,80","hexagon,circle,triangle,square,diamond","B","C","","","","test","46","true","1","categorize-html","145","327123","0.0-6.0-91.0","23210","202232920","common"
"4718.5","false","circle","81","81,80","hexagon,circle,triangle,square,diamond","B","","","","","test","47","true","1","categorize-html","147","333359","0.0-6.0-93.0","23210","202232920","common"
"1225.5","false","triangle","81","81,80","hexagon,circle,triangle,square,diamond","C","","","","","test","48","true","1","categorize-html","149","336102","0.0-6.0-95.0","23210","202232920","common"
"2754.7000002861023","false","hexagon","81","81,80","hexagon,circle,triangle,square,diamond","A","","","","","test","49","true","1","categorize-html","152","343086","0.0-6.0-98.0","23210","202232920","common"
"2947.0999999046326","false","circle","81","81,80","hexagon,circle,triangle,square,diamond","B","","","","","test","50","true","1","categorize-html","154","347544","0.0-6.0-100.0","23210","202232920","common"
"1031.8000001907349","false","triangle","81","81,80","hexagon,circle,triangle,square,diamond","C","","","","","test","51","true","1","categorize-html","156","350086","0.0-6.0-102.0","23210","202232920","common"
"881.4000000953674","false","hexagon","81","81,80","hexagon,circle,triangle,square,diamond","A","","","","","test","52","true","1","categorize-html","158","352484","0.0-6.0-104.0","23210","202232920","common"
"109.40000009536743","false","circle","81","81,80","hexagon,circle,triangle,square,diamond","B","","","","","test","53","true","1","categorize-html","160","354115","0.0-6.0-106.0","23210","202232920","common"
"718","false","triangle,circle","81","81,80","hexagon,circle,triangle,square,diamond","C","B","","","","test","54","true","1","categorize-html","162","356348","0.0-6.0-108.0","23210","202232920","common"
"55.5","false","triangle,hexagon","81","81,80","hexagon,circle,triangle,square,diamond","C","A","","","","test","55","true","1","categorize-html","164","357928","0.0-6.0-110.0","23210","202232920","common"
"332.7000002861023","false","circle,triangle","81","81,80","hexagon,circle,triangle,square,diamond","B","C","","","","test","56","true","1","categorize-html","166","359769","0.0-6.0-112.0","23210","202232920","common"
"285","false","hexagon,circle","81","81,80","hexagon,circle,triangle,square,diamond","A","B","","","","test","57","true","1","categorize-html","168","361563","0.0-6.0-114.0","23210","202232920","common"
"28.90000009536743","false","triangle","81","81,80","hexagon,circle,triangle,square,diamond","C","","","","","test","58","true","1","categorize-html","170","363106","0.0-6.0-116.0","23210","202232920","common"
"194","false","circle,hexagon","81","81,80","hexagon,circle,triangle,square,diamond","B","A","","","","test","59","true","1","categorize-html","172","364824","0.0-6.0-118.0","23210","202232920","common"
"175.30000019073486","false","hexagon,triangle","81","81,80","hexagon,circle,triangle,square,diamond","A","C","","","","test","60","true","1","categorize-html","174","366510","0.0-6.0-120.0","23210","202232920","common"
"301.40000009536743","false","circle","81","81,80","hexagon,circle,triangle,square,diamond","B","","","","","test","61","true","1","categorize-html","176","368334","0.0-6.0-122.0","23210","202232920","common"
"516","false","hexagon,circle","81","81,80","hexagon,circle,triangle,square,diamond","A","B","","","","test","62","true","1","categorize-html","178","370367","0.0-6.0-124.0","23210","202232920","common"
"314.59999990463257","false","triangle,hexagon","81","81,80","hexagon,circle,triangle,square,diamond","C","A","","","","test","63","true","1","categorize-html","180","372208","0.0-6.0-126.0","23210","202232920","common"
"572.4000000953674","false","triangle","81","81,80","hexagon,circle,triangle,square,diamond","C","","","","","test","64","true","1","categorize-html","182","374301","0.0-6.0-128.0","23210","202232920","common"
"327.69999980926514","false","circle,triangle","81","81,80","hexagon,circle,triangle,square,diamond","B","C","","","","test","65","true","1","categorize-html","184","376153","0.0-6.0-130.0","23210","202232920","common"
"126","false","triangle,circle","81","81,80","hexagon,circle,triangle,square,diamond","C","B","","","","test","66","true","1","categorize-html","186","377799","0.0-6.0-132.0","23210","202232920","common"
"1324.0999999046326","false","triangle","81","81,80","hexagon,circle,triangle,square,diamond","C","","","","","test","67","true","1","categorize-html","188","380630","0.0-6.0-134.0","23210","202232920","common"
"1809.3999996185303","false","circle","81","81,80","hexagon,circle,triangle,square,diamond","B","","","","","test","68","true","1","categorize-html","190","383962","0.0-6.0-136.0","23210","202232920","common"
"606.8999996185303","false","hexagon","81","81,80","hexagon,circle,triangle,square,diamond","A","","","","","test","69","true","1","categorize-html","192","386078","0.0-6.0-138.0","23210","202232920","common"
"363.09999990463257","false","hexagon,triangle","81","81,80","hexagon,circle,triangle,square,diamond","A","C","","","","test","70","true","1","categorize-html","194","387953","0.0-6.0-140.0","23210","202232920","common"
"472","false","circle,hexagon","81","81,80","hexagon,circle,triangle,square,diamond","B","A","","","","test","71","true","1","categorize-html","196","389946","0.0-6.0-142.0","23210","202232920","common"
"393.90000009536743","false","hexagon","81","81,80","hexagon,circle,triangle,square,diamond","A","","","","","test","72","true","1","categorize-html","198","391866","0.0-6.0-144.0","23210","202232920","common"
"1431.6999998092651","false","triangle","81","81,80","hexagon,circle,triangle,square,diamond","C","","","","","test","73","true","1","categorize-html","201","397326","0.0-6.0-147.0","23210","202232920","common"
"717.1999998092651","false","circle,triangle","81","81,80","hexagon,circle,triangle,square,diamond","B","C","","","","test","74","true","1","categorize-html","203","399563","0.0-6.0-149.0","23210","202232920","common"
"952.1000003814697","false","triangle,circle","81","81,80","hexagon,circle,triangle,square,diamond","C","B","","","","test","75","true","1","categorize-html","205","402044","0.0-6.0-151.0","23210","202232920","common"
"930.7999997138977","false","triangle,hexagon","81","81,80","hexagon,circle,triangle,square,diamond","C","A","","","","test","76","true","1","categorize-html","207","404483","0.0-6.0-153.0","23210","202232920","common"
"384.40000009536743","false","circle,hexagon","81","81,80","hexagon,circle,triangle,square,diamond","B","A","","","","test","77","true","1","categorize-html","209","406385","0.0-6.0-155.0","23210","202232920","common"
"843.9000000953674","false","circle","81","81,80","hexagon,circle,triangle,square,diamond","B","","","","","test","78","true","1","categorize-html","211","408744","0.0-6.0-157.0","23210","202232920","common"
"3440.2999997138977","false","triangle","81","81,80","hexagon,circle,triangle,square,diamond","C","","","","","test","79","true","1","categorize-html","213","413693","0.0-6.0-159.0","23210","202232920","common"
"876.5","false","hexagon","81","81,80","hexagon,circle,triangle,square,diamond","A","","","","","test","80","true","1","categorize-html","215","416089","0.0-6.0-161.0","23210","202232920","common"
"2223.699999809265","false","hexagon,triangle","81","81,80","hexagon,circle,triangle,square,diamond","A","C","","","","test","81","true","1","categorize-html","217","419832","0.0-6.0-163.0","23210","202232920","common"
"934.5","false","circle","81","81,80","hexagon,circle,triangle,square,diamond","B","","","","","test","82","true","1","categorize-html","219","422299","0.0-6.0-165.0","23210","202232920","common"
"366.90000009536743","false","hexagon","81","81,80","hexagon,circle,triangle,square,diamond","A","","","","","test","83","true","1","categorize-html","221","424190","0.0-6.0-167.0","23210","202232920","common"
"976.2999997138977","false","hexagon,circle","81","81,80","hexagon,circle,triangle,square,diamond","A","B","","","","test","84","true","1","categorize-html","223","426693","0.0-6.0-169.0","23210","202232920","common"
"364.90000009536743","false","circle,triangle","81","81,80","hexagon,circle,triangle,square,diamond","B","C","","","","test","85","true","1","categorize-html","225","428579","0.0-6.0-171.0","23210","202232920","common"
"429.80000019073486","false","hexagon","81","81,80","hexagon,circle,triangle,square,diamond","A","","","","","test","86","true","1","categorize-html","227","430533","0.0-6.0-173.0","23210","202232920","common"
"566.9000000953674","false","triangle","81","81,80","hexagon,circle,triangle,square,diamond","C","","","","","test","87","true","1","categorize-html","229","432617","0.0-6.0-175.0","23210","202232920","common"
"382.90000009536743","false","circle,hexagon","81","81,80","hexagon,circle,triangle,square,diamond","B","A","","","","test","88","true","1","categorize-html","231","434517","0.0-6.0-177.0","23210","202232920","common"
"367.09999990463257","false","triangle,circle","81","81,80","hexagon,circle,triangle,square,diamond","C","B","","","","test","89","true","1","categorize-html","233","436406","0.0-6.0-179.0","23210","202232920","common"
"535.6999998092651","false","circle","81","81,80","hexagon,circle,triangle,square,diamond","B","","","","","test","90","true","1","categorize-html","235","438469","0.0-6.0-181.0","23210","202232920","common"
"355.80000019073486","false","circle","81","81,80","hexagon,circle,triangle,square,diamond","B","","","","","test","91","true","1","categorize-html","237","440343","0.0-6.0-183.0","23210","202232920","common"
"328.2000002861023","false","triangle,hexagon","81","81,80","hexagon,circle,triangle,square,diamond","C","A","","","","test","92","true","1","categorize-html","239","442187","0.0-6.0-185.0","23210","202232920","common"
"167.59999990463257","false","hexagon","81","81,80","hexagon,circle,triangle,square,diamond","A","","","","","test","93","true","1","categorize-html","241","443879","0.0-6.0-187.0","23210","202232920","common"
"64.59999990463257","false","triangle","81","81,80","hexagon,circle,triangle,square,diamond","C","","","","","test","94","true","1","categorize-html","243","445471","0.0-6.0-189.0","23210","202232920","common"
"956","false","hexagon,circle","81","81,80","hexagon,circle,triangle,square,diamond","A","B","","","","test","95","true","1","categorize-html","245","447949","0.0-6.0-191.0","23210","202232920","common"
"359.30000019073486","false","hexagon,triangle","81","81,80","hexagon,circle,triangle,square,diamond","A","C","","","","test","96","true","1","categorize-html","247","449830","0.0-6.0-193.0","23210","202232920","common"
"710.7999997138977","false","hexagon","81","81,80","hexagon,circle,triangle,square,diamond","A","","","","","test","97","true","1","categorize-html","250","454079","0.0-6.0-196.0","23210","202232920","common"
"388.40000009536743","false","circle,hexagon","81","81,80","hexagon,circle,triangle,square,diamond","B","A","","","","test","98","true","1","categorize-html","252","455984","0.0-6.0-198.0","23210","202232920","common"
"318.2999997138977","false","circle","81","81,80","hexagon,circle,triangle,square,diamond","B","","","","","test","99","true","1","categorize-html","254","457825","0.0-6.0-200.0","23210","202232920","common"
"248.7999997138977","false","hexagon","81","81,80","hexagon,circle,triangle,square,diamond","A","","","","","test","100","true","1","categorize-html","256","459610","0.0-6.0-202.0","23210","202232920","common"
"540.5","false","hexagon,circle","81","81,80","hexagon,circle,triangle,square,diamond","A","B","","","","test","101","true","1","categorize-html","258","461675","0.0-6.0-204.0","23210","202232920","common"
"618.1999998092651","false","triangle,hexagon","81","81,80","hexagon,circle,triangle,square,diamond","C","A","","","","test","102","true","1","categorize-html","260","463821","0.0-6.0-206.0","23210","202232920","common"
"361","false","circle,triangle","81","81,80","hexagon,circle,triangle,square,diamond","B","C","","","","test","103","true","1","categorize-html","262","465713","0.0-6.0-208.0","23210","202232920","common"
"84.7000002861023","false","circle","81","81,80","hexagon,circle,triangle,square,diamond","B","","","","","test","104","true","1","categorize-html","264","467315","0.0-6.0-210.0","23210","202232920","common"
"150","false","triangle","81","81,80","hexagon,circle,triangle,square,diamond","C","","","","","test","105","true","1","categorize-html","266","468988","0.0-6.0-212.0","23210","202232920","common"
"582.2000002861023","false","triangle,circle","81","81,80","hexagon,circle,triangle,square,diamond","C","B","","","","test","106","true","1","categorize-html","268","471106","0.0-6.0-214.0","23210","202232920","common"
"71.5","false","hexagon,triangle","81","81,80","hexagon,circle,triangle,square,diamond","A","C","","","","test","107","true","1","categorize-html","270","472711","0.0-6.0-216.0","23210","202232920","common"
"277.09999990463257","false","triangle","81","81,80","hexagon,circle,triangle,square,diamond","C","","","","","test","108","true","1","categorize-html","272","474506","0.0-6.0-218.0","23210","202232920","common"
"319.59999990463257","false","circle","81","81,80","hexagon,circle,triangle,square,diamond","B","","","","","test","109","true","1","categorize-html","274","476344","0.0-6.0-220.0","23210","202232920","common"
"262.7999997138977","false","triangle","81","81,80","hexagon,circle,triangle,square,diamond","C","","","","","test","110","true","1","categorize-html","276","478120","0.0-6.0-222.0","23210","202232920","common"
"43.59999990463257","false","triangle,hexagon","81","81,80","hexagon,circle,triangle,square,diamond","C","A","","","","test","111","true","1","categorize-html","278","479685","0.0-6.0-224.0","23210","202232920","common"
"375.40000009536743","false","triangle","81","81,80","hexagon,circle,triangle,square,diamond","C","","","","","test","112","true","1","categorize-html","280","481592","0.0-6.0-226.0","23210","202232920","common"
"360.09999990463257","false","circle,hexagon","81","81,80","hexagon,circle,triangle,square,diamond","B","A","","","","test","113","true","1","categorize-html","282","483475","0.0-6.0-228.0","23210","202232920","common"
"349.90000009536743","false","hexagon,triangle","81","81,80","hexagon,circle,triangle,square,diamond","A","C","","","","test","114","true","1","categorize-html","284","485331","0.0-6.0-230.0","23210","202232920","common"
"598.7999997138977","false","hexagon,circle","81","81,80","hexagon,circle,triangle,square,diamond","A","B","","","","test","115","true","1","categorize-html","286","487443","0.0-6.0-232.0","23210","202232920","common"
"110","false","circle","81","81,80","hexagon,circle,triangle,square,diamond","B","","","","","test","116","true","1","categorize-html","288","489090","0.0-6.0-234.0","23210","202232920","common"
"199.30000019073486","false","circle,triangle","81","81,80","hexagon,circle,triangle,square,diamond","B","C","","","","test","117","true","1","categorize-html","290","490821","0.0-6.0-236.0","23210","202232920","common"
"369","false","hexagon","81","81,80","hexagon,circle,triangle,square,diamond","A","","","","","test","118","true","1","categorize-html","292","492719","0.0-6.0-238.0","23210","202232920","common"
"22.40000009536743","false","hexagon","81","81,80","hexagon,circle,triangle,square,diamond","A","","","","","test","119","true","1","categorize-html","294","494274","0.0-6.0-240.0","23210","202232920","common"
"455","false","triangle,circle","81","81,80","hexagon,circle,triangle,square,diamond","C","B","","","","test","120","true","1","categorize-html","296","496253","0.0-6.0-242.0","23210","202232920","common"
