"rt","correct","stimulus","key_press","keys","symptoms_shuffle","symptom1","symptom2","symptom3","key","category","phase","trial","include","block","trial_type","trial_index","time_elapsed","internal_node_id","ppt","session","abresp"
"null","false","diamond,triangle,hexagon","null","81,80","diamond,hexagon,circle,triangle,square","A","D","B","81","common","training","1","true","1","categorize-html","4","98831","0.0-4.0-0.0","24371","20224120","none"
"1814.699999988079","false","hexagon,triangle,diamond","32","81,80","diamond,hexagon,circle,triangle,square","B","D","A","81","common","training","2","true","1","categorize-html","6","101666","0.0-4.0-2.0","24371","20224120","none"
"2060.800000011921","false","square,diamond,circle","32","81,80","diamond,hexagon,circle,triangle,square","E","A","C","80","rare","training","3","true","1","categorize-html","8","104754","0.0-4.0-4.0","24371","20224120","none"
"1601","false","hexagon,triangle,diamond","32","81,80","diamond,hexagon,circle,triangle,square","B","D","A","81","common","training","4","true","1","categorize-html","10","107360","0.0-4.0-6.0","24371","20224120","none"
"1505.5","false","triangle,hexagon,diamond","32","81,80","diamond,hexagon,circle,triangle,square","D","B","A","81","common","training","5","true","1","categorize-html","12","109902","0.0-4.0-8.0","24371","20224120","none"
"1975.800000011921","false","triangle,diamond,hexagon","32","81,80","diamond,hexagon,circle,triangle,square","D","A","B","81","common","training","6","true","1","categorize-html","14","112894","0.0-4.0-10.0","24371","20224120","none"
"1820.199999988079","false","hexagon,diamond,triangle","32","81,80","diamond,hexagon,circle,triangle,square","B","A","D","81","common","training","7","true","1","categorize-html","16","115744","0.0-4.0-12.0","24371","20224120","none"
"1214.3999999761581","false","diamond,square,circle","32","81,80","diamond,hexagon,circle,triangle,square","A","E","C","80","rare","training","8","true","1","categorize-html","18","117985","0.0-4.0-14.0","24371","20224120","none"
"2048.7000000476837","false","triangle,hexagon,diamond","32","81,80","diamond,hexagon,circle,triangle,square","D","B","A","81","common","training","9","true","1","categorize-html","20","121053","0.0-4.0-16.0","24371","20224120","none"
"1271.3999999761581","false","triangle,hexagon,diamond","32","81,80","diamond,hexagon,circle,triangle,square","D","B","A","81","common","training","10","true","1","categorize-html","22","123340","0.0-4.0-18.0","24371","20224120","none"
"1419","false","diamond,triangle,hexagon","32","81,80","diamond,hexagon,circle,triangle,square","A","D","B","81","common","training","11","true","1","categorize-html","24","125787","0.0-4.0-20.0","24371","20224120","none"
"1287.800000011921","false","diamond,hexagon,triangle","32","81,80","diamond,hexagon,circle,triangle,square","A","B","D","81","common","training","12","true","1","categorize-html","26","128098","0.0-4.0-22.0","24371","20224120","none"
"1545.300000011921","false","hexagon,diamond,triangle","32","81,80","diamond,hexagon,circle,triangle,square","B","A","D","81","common","training","13","true","1","categorize-html","28","130662","0.0-4.0-24.0","24371","20224120","none"
"1553.300000011921","false","diamond,triangle,hexagon","32","81,80","diamond,hexagon,circle,triangle,square","A","D","B","81","common","training","14","true","1","categorize-html","30","133240","0.0-4.0-26.0","24371","20224120","none"
"1023","false","triangle,diamond,hexagon","32","81,80","diamond,hexagon,circle,triangle,square","D","A","B","81","common","training","15","true","1","categorize-html","32","135290","0.0-4.0-28.0","24371","20224120","none"
"1316","false","circle,square,diamond","32","81,80","diamond,hexagon,circle,triangle,square","C","E","A","80","rare","training","16","true","1","categorize-html","34","137635","0.0-4.0-30.0","24371","20224120","none"
"1046","false","hexagon,triangle,diamond","32","81,80","diamond,hexagon,circle,triangle,square","B","D","A","81","common","training","17","true","1","categorize-html","36","139710","0.0-4.0-32.0","24371","20224120","none"
"1037.0999999642372","false","circle,diamond,square","32","81,80","diamond,hexagon,circle,triangle,square","C","A","E","80","rare","training","18","true","1","categorize-html","38","141759","0.0-4.0-34.0","24371","20224120","none"
"2000.699999988079","false","diamond,hexagon,triangle","32","81,80","diamond,hexagon,circle,triangle,square","A","B","D","81","common","training","19","true","1","categorize-html","40","144789","0.0-4.0-36.0","24371","20224120","none"
"1294.1000000238419","false","diamond,hexagon,triangle","32","81,80","diamond,hexagon,circle,triangle,square","A","B","D","81","common","training","20","true","1","categorize-html","42","147108","0.0-4.0-38.0","24371","20224120","none"
"1225.199999988079","false","diamond,circle,square","32","81,80","diamond,hexagon,circle,triangle,square","A","C","E","80","rare","training","21","true","1","categorize-html","44","149356","0.0-4.0-40.0","24371","20224120","none"
"1527.5","false","square,circle,diamond","32","81,80","diamond,hexagon,circle,triangle,square","E","C","A","80","rare","training","22","true","1","categorize-html","46","151910","0.0-4.0-42.0","24371","20224120","none"
"1144.9000000357628","false","hexagon,diamond,triangle","32","81,80","diamond,hexagon,circle,triangle,square","B","A","D","81","common","training","23","true","1","categorize-html","48","154083","0.0-4.0-44.0","24371","20224120","none"
"2159.5","false","triangle,diamond,hexagon","32","81,80","diamond,hexagon,circle,triangle,square","D","A","B","81","common","training","24","true","1","categorize-html","50","157263","0.0-4.0-46.0","24371","20224120","none"
"1347.5999999642372","false","triangle,hexagon,diamond","32","81,80","diamond,hexagon,circle,triangle,square","D","B","A","81","common","training","25","true","2","categorize-html","53","175660","0.0-4.0-49.0","24371","20224120","none"
"1480.4000000357628","false","triangle,diamond,hexagon","32","81,80","diamond,hexagon,circle,triangle,square","D","A","B","81","common","training","26","true","2","categorize-html","55","178158","0.0-4.0-51.0","24371","20224120","none"
"1176.699999988079","false","hexagon,diamond,triangle","32","81,80","diamond,hexagon,circle,triangle,square","B","A","D","81","common","training","27","true","2","categorize-html","57","180350","0.0-4.0-53.0","24371","20224120","none"
"961.4000000357628","false","square,circle,diamond","32","81,80","diamond,hexagon,circle,triangle,square","E","C","A","80","rare","training","28","true","2","categorize-html","59","182326","0.0-4.0-55.0","24371","20224120","none"
"428.2999999523163","false","circle,diamond,square","32","81,80","diamond,hexagon,circle,triangle,square","C","A","E","80","rare","training","29","true","2","categorize-html","61","183764","0.0-4.0-57.0","24371","20224120","none"
"489.10000002384186","false","diamond,hexagon,triangle","32","81,80","diamond,hexagon,circle,triangle,square","A","B","D","81","common","training","30","true","2","categorize-html","63","185279","0.0-4.0-59.0","24371","20224120","none"
"655","false","hexagon,diamond,triangle","32","81,80","diamond,hexagon,circle,triangle,square","B","A","D","81","common","training","31","true","2","categorize-html","65","186947","0.0-4.0-61.0","24371","20224120","none"
"674.7999999523163","false","diamond,triangle,hexagon","32","81,80","diamond,hexagon,circle,triangle,square","A","D","B","81","common","training","32","true","2","categorize-html","67","188642","0.0-4.0-63.0","24371","20224120","none"
"501.5","false","triangle,diamond,hexagon","32","81,80","diamond,hexagon,circle,triangle,square","D","A","B","81","common","training","33","true","2","categorize-html","69","190168","0.0-4.0-65.0","24371","20224120","none"
"1129.1000000238419","false","hexagon,triangle,diamond","32","81,80","diamond,hexagon,circle,triangle,square","B","D","A","81","common","training","34","true","2","categorize-html","71","192310","0.0-4.0-67.0","24371","20224120","none"
"635.6000000238419","false","hexagon,triangle,diamond","32","81,80","diamond,hexagon,circle,triangle,square","B","D","A","81","common","training","35","true","2","categorize-html","73","193957","0.0-4.0-69.0","24371","20224120","none"
"484.39999997615814","false","hexagon,diamond,triangle","32","81,80","diamond,hexagon,circle,triangle,square","B","A","D","81","common","training","36","true","2","categorize-html","75","195482","0.0-4.0-71.0","24371","20224120","none"
"517.5999999642372","false","diamond,hexagon,triangle","32","81,80","diamond,hexagon,circle,triangle,square","A","B","D","81","common","training","37","true","2","categorize-html","77","197025","0.0-4.0-73.0","24371","20224120","none"
"457.10000002384186","false","diamond,circle,square","32","81,80","diamond,hexagon,circle,triangle,square","A","C","E","80","rare","training","38","true","2","categorize-html","79","198503","0.0-4.0-75.0","24371","20224120","none"
"377.39999997615814","false","triangle,diamond,hexagon","32","81,80","diamond,hexagon,circle,triangle,square","D","A","B","81","common","training","39","true","2","categorize-html","81","199903","0.0-4.0-77.0","24371","20224120","none"
"470.5","false","hexagon,triangle,diamond","32","81,80","diamond,hexagon,circle,triangle,square","B","D","A","81","common","training","40","true","2","categorize-html","83","201382","0.0-4.0-79.0","24371","20224120","none"
"453.9000000357628","false","triangle,hexagon,diamond","32","81,80","diamond,hexagon,circle,triangle,square","D","B","A","81","common","training","41","true","2","categorize-html","85","202862","0.0-4.0-81.0","24371","20224120","none"
"403.39999997615814","false","diamond,triangle,hexagon","32","81,80","diamond,hexagon,circle,triangle,square","A","D","B","81","common","training","42","true","2","categorize-html","87","204293","0.0-4.0-83.0","24371","20224120","none"
"314.80000001192093","false","diamond,triangle,hexagon","32","81,80","diamond,hexagon,circle,triangle,square","A","D","B","81","common","training","43","true","2","categorize-html","89","205642","0.0-4.0-85.0","24371","20224120","none"
"479.89999997615814","false","diamond,square,circle","32","81,80","diamond,hexagon,circle,triangle,square","A","E","C","80","rare","training","44","true","2","categorize-html","91","207153","0.0-4.0-87.0","24371","20224120","none"
"537","false","circle,square,diamond","32","81,80","diamond,hexagon,circle,triangle,square","C","E","A","80","rare","training","45","true","2","categorize-html","93","208702","0.0-4.0-89.0","24371","20224120","none"
"606.3999999761581","false","triangle,hexagon,diamond","32","81,80","diamond,hexagon,circle,triangle,square","D","B","A","81","common","training","46","true","2","categorize-html","95","210332","0.0-4.0-91.0","24371","20224120","none"
"518.3999999761581","false","diamond,hexagon,triangle","32","81,80","diamond,hexagon,circle,triangle,square","A","B","D","81","common","training","47","true","2","categorize-html","97","211871","0.0-4.0-93.0","24371","20224120","none"
"1009.5","false","square,diamond,circle","32","81,80","diamond,hexagon,circle,triangle,square","E","A","C","80","rare","training","48","true","2","categorize-html","99","213911","0.0-4.0-95.0","24371","20224120","none"
"2817","false","circle,hexagon","80","81,80","diamond,hexagon,circle,triangle,square","C","B","","","","test","1","true","1","categorize-html","103","270584","0.0-6.0-0.0","24371","20224120","rare"
"4168","false","hexagon,circle","81","81,80","diamond,hexagon,circle,triangle,square","B","C","","","","test","2","true","1","categorize-html","105","276275","0.0-6.0-2.0","24371","20224120","common"
"9143","false","diamond","80","81,80","diamond,hexagon,circle,triangle,square","A","","","","","test","3","true","1","categorize-html","107","286966","0.0-6.0-4.0","24371","20224120","rare"
"3270.699999988079","false","circle,diamond","80","81,80","diamond,hexagon,circle,triangle,square","C","A","","","","test","4","true","1","categorize-html","109","291752","0.0-6.0-6.0","24371","20224120","rare"
"1476.6000000238419","false","diamond,hexagon","81","81,80","diamond,hexagon,circle,triangle,square","A","B","","","","test","5","true","1","categorize-html","111","294760","0.0-6.0-8.0","24371","20224120","common"
"5283.199999988079","false","circle","80","81,80","diamond,hexagon,circle,triangle,square","C","","","","","test","6","true","1","categorize-html","113","301558","0.0-6.0-10.0","24371","20224120","rare"
"1030.699999988079","false","circle","80","81,80","diamond,hexagon,circle,triangle,square","C","","","","","test","7","true","1","categorize-html","115","304116","0.0-6.0-12.0","24371","20224120","rare"
"2138.600000023842","false","diamond","81","81,80","diamond,hexagon,circle,triangle,square","A","","","","","test","8","true","1","categorize-html","117","307777","0.0-6.0-14.0","24371","20224120","common"
"2900.5","false","hexagon","81","81,80","diamond,hexagon,circle,triangle,square","B","","","","","test","9","true","1","categorize-html","119","312198","0.0-6.0-16.0","24371","20224120","common"
"2940.5","false","diamond,circle","80","81,80","diamond,hexagon,circle,triangle,square","A","C","","","","test","10","true","1","categorize-html","121","316651","0.0-6.0-18.0","24371","20224120","rare"
"1169.3999999761581","false","hexagon","81","81,80","diamond,hexagon,circle,triangle,square","B","","","","","test","11","true","1","categorize-html","123","319346","0.0-6.0-20.0","24371","20224120","common"
"1791.5","false","hexagon,diamond","81","81,80","diamond,hexagon,circle,triangle,square","B","A","","","","test","12","true","1","categorize-html","125","322653","0.0-6.0-22.0","24371","20224120","common"
"1512.199999988079","false","diamond,hexagon","81","81,80","diamond,hexagon,circle,triangle,square","A","B","","","","test","13","true","1","categorize-html","127","325686","0.0-6.0-24.0","24371","20224120","common"
"1039.5","false","hexagon","81","81,80","diamond,hexagon,circle,triangle,square","B","","","","","test","14","true","1","categorize-html","129","328254","0.0-6.0-26.0","24371","20224120","common"
"1312.0999999642372","false","circle","80","81,80","diamond,hexagon,circle,triangle,square","C","","","","","test","15","true","1","categorize-html","131","331090","0.0-6.0-28.0","24371","20224120","rare"
"3284.5","false","hexagon","81","81,80","diamond,hexagon,circle,triangle,square","B","","","","","test","16","true","1","categorize-html","133","335889","0.0-6.0-30.0","24371","20224120","common"
"2887","false","circle","80","81,80","diamond,hexagon,circle,triangle,square","C","","","","","test","17","true","1","categorize-html","135","340294","0.0-6.0-32.0","24371","20224120","rare"
"1180.699999988079","false","diamond","80","81,80","diamond,hexagon,circle,triangle,square","A","","","","","test","18","true","1","categorize-html","137","342986","0.0-6.0-34.0","24371","20224120","rare"
"3767.2999999523163","false","diamond","80","81,80","diamond,hexagon,circle,triangle,square","A","","","","","test","19","true","1","categorize-html","139","348262","0.0-6.0-36.0","24371","20224120","rare"
"1181.8999999761581","false","circle,diamond","80","81,80","diamond,hexagon,circle,triangle,square","C","A","","","","test","20","true","1","categorize-html","141","350971","0.0-6.0-38.0","24371","20224120","rare"
"1688.199999988079","false","circle,hexagon","80","81,80","diamond,hexagon,circle,triangle,square","C","B","","","","test","21","true","1","categorize-html","143","354178","0.0-6.0-40.0","24371","20224120","rare"
"5557.799999952316","false","hexagon,diamond","81","81,80","diamond,hexagon,circle,triangle,square","B","A","","","","test","22","true","1","categorize-html","145","361264","0.0-6.0-42.0","24371","20224120","common"
"1727.199999988079","false","hexagon,circle","80","81,80","diamond,hexagon,circle,triangle,square","B","C","","","","test","23","true","1","categorize-html","147","364523","0.0-6.0-44.0","24371","20224120","rare"
"1687.699999988079","false","diamond,circle","80","81,80","diamond,hexagon,circle,triangle,square","A","C","","","","test","24","true","1","categorize-html","149","367725","0.0-6.0-46.0","24371","20224120","rare"
"1262.8999999761581","false","circle","80","81,80","diamond,hexagon,circle,triangle,square","C","","","","","test","25","true","1","categorize-html","152","375662","0.0-6.0-49.0","24371","20224120","rare"
"1367.300000011921","false","hexagon,circle","81","81,80","diamond,hexagon,circle,triangle,square","B","C","","","","test","26","true","1","categorize-html","154","378545","0.0-6.0-51.0","24371","20224120","common"
"1364.199999988079","false","circle,hexagon","81","81,80","diamond,hexagon,circle,triangle,square","C","B","","","","test","27","true","1","categorize-html","156","381432","0.0-6.0-53.0","24371","20224120","common"
"1055.8999999761581","false","hexagon","81","81,80","diamond,hexagon,circle,triangle,square","B","","","","","test","28","true","1","categorize-html","158","384002","0.0-6.0-55.0","24371","20224120","common"
"1084","false","circle","80","81,80","diamond,hexagon,circle,triangle,square","C","","","","","test","29","true","1","categorize-html","160","386606","0.0-6.0-57.0","24371","20224120","rare"
"779.0999999642372","false","diamond","80","81,80","diamond,hexagon,circle,triangle,square","A","","","","","test","30","true","1","categorize-html","162","388891","0.0-6.0-59.0","24371","20224120","rare"
"3144","false","hexagon","81","81,80","diamond,hexagon,circle,triangle,square","B","","","","","test","31","true","1","categorize-html","164","393545","0.0-6.0-61.0","24371","20224120","common"
"992.8000000119209","false","diamond","80","81,80","diamond,hexagon,circle,triangle,square","A","","","","","test","32","true","1","categorize-html","166","396055","0.0-6.0-63.0","24371","20224120","rare"
"1181.199999988079","false","hexagon,diamond","81","81,80","diamond,hexagon,circle,triangle,square","B","A","","","","test","33","true","1","categorize-html","168","398745","0.0-6.0-65.0","24371","20224120","common"
"1381.4000000357628","false","diamond,circle","80","81,80","diamond,hexagon,circle,triangle,square","A","C","","","","test","34","true","1","categorize-html","170","401646","0.0-6.0-67.0","24371","20224120","rare"
"1073.9000000357628","false","diamond,hexagon","81","81,80","diamond,hexagon,circle,triangle,square","A","B","","","","test","35","true","1","categorize-html","172","404235","0.0-6.0-69.0","24371","20224120","common"
"1041","false","circle,diamond","80","81,80","diamond,hexagon,circle,triangle,square","C","A","","","","test","36","true","1","categorize-html","174","406787","0.0-6.0-71.0","24371","20224120","rare"
"695","false","circle","80","81,80","diamond,hexagon,circle,triangle,square","C","","","","","test","37","true","1","categorize-html","176","409009","0.0-6.0-73.0","24371","20224120","rare"
"712.6000000238419","false","circle","80","81,80","diamond,hexagon,circle,triangle,square","C","","","","","test","38","true","1","categorize-html","178","411234","0.0-6.0-75.0","24371","20224120","rare"
"2028.7999999523163","false","circle,diamond","80","81,80","diamond,hexagon,circle,triangle,square","C","A","","","","test","39","true","1","categorize-html","180","414774","0.0-6.0-77.0","24371","20224120","rare"
"1499.0999999642372","false","hexagon,diamond","81","81,80","diamond,hexagon,circle,triangle,square","B","A","","","","test","40","true","1","categorize-html","182","417804","0.0-6.0-79.0","24371","20224120","common"
"848","false","hexagon","81","81,80","diamond,hexagon,circle,triangle,square","B","","","","","test","41","true","1","categorize-html","184","420167","0.0-6.0-81.0","24371","20224120","common"
"1029.7999999523163","false","diamond,circle","80","81,80","diamond,hexagon,circle,triangle,square","A","C","","","","test","42","true","1","categorize-html","186","422711","0.0-6.0-83.0","24371","20224120","rare"
"671.7000000476837","false","diamond","80","81,80","diamond,hexagon,circle,triangle,square","A","","","","","test","43","true","1","categorize-html","188","424901","0.0-6.0-85.0","24371","20224120","rare"
"1020.8000000119209","false","diamond,hexagon","81","81,80","diamond,hexagon,circle,triangle,square","A","B","","","","test","44","true","1","categorize-html","190","427432","0.0-6.0-87.0","24371","20224120","common"
"1182.7999999523163","false","hexagon","81","81,80","diamond,hexagon,circle,triangle,square","B","","","","","test","45","true","1","categorize-html","192","430149","0.0-6.0-89.0","24371","20224120","common"
"647.6999999880791","false","diamond","80","81,80","diamond,hexagon,circle,triangle,square","A","","","","","test","46","true","1","categorize-html","194","432324","0.0-6.0-91.0","24371","20224120","rare"
"2784","false","circle,hexagon","80","81,80","diamond,hexagon,circle,triangle,square","C","B","","","","test","47","true","1","categorize-html","196","436625","0.0-6.0-93.0","24371","20224120","rare"
"1712.8999999761581","false","hexagon,circle","81","81,80","diamond,hexagon,circle,triangle,square","B","C","","","","test","48","true","1","categorize-html","198","439858","0.0-6.0-95.0","24371","20224120","common"
"1617.3999999761581","false","hexagon,diamond","81","81,80","diamond,hexagon,circle,triangle,square","B","A","","","","test","49","true","1","categorize-html","201","444845","0.0-6.0-98.0","24371","20224120","common"
"1441.1000000238419","false","circle,diamond","80","81,80","diamond,hexagon,circle,triangle,square","C","A","","","","test","50","true","1","categorize-html","203","447809","0.0-6.0-100.0","24371","20224120","rare"
"912.1999999880791","false","diamond","80","81,80","diamond,hexagon,circle,triangle,square","A","","","","","test","51","true","1","categorize-html","205","450239","0.0-6.0-102.0","24371","20224120","rare"
"864.3000000119209","false","circle","80","81,80","diamond,hexagon,circle,triangle,square","C","","","","","test","52","true","1","categorize-html","207","452624","0.0-6.0-104.0","24371","20224120","rare"
"992.8000000119209","false","diamond","80","81,80","diamond,hexagon,circle,triangle,square","A","","","","","test","53","true","1","categorize-html","209","455142","0.0-6.0-106.0","24371","20224120","rare"
"2084.399999976158","false","hexagon,circle","81","81,80","diamond,hexagon,circle,triangle,square","B","C","","","","test","54","true","1","categorize-html","211","458754","0.0-6.0-108.0","24371","20224120","common"
"937.4000000357628","false","circle,hexagon","81","81,80","diamond,hexagon,circle,triangle,square","C","B","","","","test","55","true","1","categorize-html","213","461202","0.0-6.0-110.0","24371","20224120","common"
"1486.1000000238419","false","hexagon","81","81,80","diamond,hexagon,circle,triangle,square","B","","","","","test","56","true","1","categorize-html","215","464205","0.0-6.0-112.0","24371","20224120","common"
"885.1999999880791","false","diamond,circle","80","81,80","diamond,hexagon,circle,triangle,square","A","C","","","","test","57","true","1","categorize-html","217","466612","0.0-6.0-114.0","24371","20224120","rare"
"2222.100000023842","false","diamond,hexagon","81","81,80","diamond,hexagon,circle,triangle,square","A","B","","","","test","58","true","1","categorize-html","219","470360","0.0-6.0-116.0","24371","20224120","common"
"1168.6000000238419","false","circle","80","81,80","diamond,hexagon,circle,triangle,square","C","","","","","test","59","true","1","categorize-html","221","473059","0.0-6.0-118.0","24371","20224120","rare"
"1306","false","hexagon","81","81,80","diamond,hexagon,circle,triangle,square","B","","","","","test","60","true","1","categorize-html","223","475890","0.0-6.0-120.0","24371","20224120","common"
"3975.899999976158","false","hexagon,diamond","81","81,80","diamond,hexagon,circle,triangle,square","B","A","","","","test","61","true","1","categorize-html","225","481399","0.0-6.0-122.0","24371","20224120","common"
"1402.7000000476837","false","hexagon,circle","80","81,80","diamond,hexagon,circle,triangle,square","B","C","","","","test","62","true","1","categorize-html","227","484316","0.0-6.0-124.0","24371","20224120","rare"
"1555.6000000238419","false","circle","80","81,80","diamond,hexagon,circle,triangle,square","C","","","","","test","63","true","1","categorize-html","229","487388","0.0-6.0-126.0","24371","20224120","rare"
"1401.9000000357628","false","circle","81","81,80","diamond,hexagon,circle,triangle,square","C","","","","","test","64","true","1","categorize-html","231","490314","0.0-6.0-128.0","24371","20224120","common"
"1232.5999999642372","false","diamond,circle","80","81,80","diamond,hexagon,circle,triangle,square","A","C","","","","test","65","true","1","categorize-html","233","493062","0.0-6.0-130.0","24371","20224120","rare"
"1256.6000000238419","false","diamond,hexagon","81","81,80","diamond,hexagon,circle,triangle,square","A","B","","","","test","66","true","1","categorize-html","235","495839","0.0-6.0-132.0","24371","20224120","common"
"781.4000000357628","false","hexagon","81","81,80","diamond,hexagon,circle,triangle,square","B","","","","","test","67","true","1","categorize-html","237","498155","0.0-6.0-134.0","24371","20224120","common"
"991.1000000238419","false","circle,diamond","80","81,80","diamond,hexagon,circle,triangle,square","C","A","","","","test","68","true","1","categorize-html","239","500666","0.0-6.0-136.0","24371","20224120","rare"
"864.3999999761581","false","circle,hexagon","81","81,80","diamond,hexagon,circle,triangle,square","C","B","","","","test","69","true","1","categorize-html","241","503043","0.0-6.0-138.0","24371","20224120","common"
"832.7000000476837","false","hexagon","81","81,80","diamond,hexagon,circle,triangle,square","B","","","","","test","70","true","1","categorize-html","243","505401","0.0-6.0-140.0","24371","20224120","common"
"1564.4000000357628","false","diamond","80","81,80","diamond,hexagon,circle,triangle,square","A","","","","","test","71","true","1","categorize-html","245","508472","0.0-6.0-142.0","24371","20224120","rare"
"584.1999999880791","false","diamond","81","81,80","diamond,hexagon,circle,triangle,square","A","","","","","test","72","true","1","categorize-html","247","510580","0.0-6.0-144.0","24371","20224120","common"
"846.3999999761581","false","circle","80","81,80","diamond,hexagon,circle,triangle,square","C","","","","","test","73","true","1","categorize-html","250","514158","0.0-6.0-147.0","24371","20224120","rare"
"954","false","diamond,circle","80","81,80","diamond,hexagon,circle,triangle,square","A","C","","","","test","74","true","1","categorize-html","252","516637","0.0-6.0-149.0","24371","20224120","rare"
"1047.5999999642372","false","circle","80","81,80","diamond,hexagon,circle,triangle,square","C","","","","","test","75","true","1","categorize-html","254","519207","0.0-6.0-151.0","24371","20224120","rare"
"791.0999999642372","false","hexagon,diamond","80","81,80","diamond,hexagon,circle,triangle,square","B","A","","","","test","76","true","1","categorize-html","256","521519","0.0-6.0-153.0","24371","20224120","rare"
"1076.8999999761581","false","circle,hexagon","81","81,80","diamond,hexagon,circle,triangle,square","C","B","","","","test","77","true","1","categorize-html","258","524120","0.0-6.0-155.0","24371","20224120","common"
"1330.5","false","hexagon,circle","80","81,80","diamond,hexagon,circle,triangle,square","B","C","","","","test","78","true","1","categorize-html","260","526967","0.0-6.0-157.0","24371","20224120","rare"
"937.9000000357628","false","diamond,hexagon","81","81,80","diamond,hexagon,circle,triangle,square","A","B","","","","test","79","true","1","categorize-html","262","529426","0.0-6.0-159.0","24371","20224120","common"
"736","false","hexagon","81","81,80","diamond,hexagon,circle,triangle,square","B","","","","","test","80","true","1","categorize-html","264","531672","0.0-6.0-161.0","24371","20224120","common"
"616.6999999880791","false","diamond","81","81,80","diamond,hexagon,circle,triangle,square","A","","","","","test","81","true","1","categorize-html","266","533812","0.0-6.0-163.0","24371","20224120","common"
"1111.8999999761581","false","circle,diamond","80","81,80","diamond,hexagon,circle,triangle,square","C","A","","","","test","82","true","1","categorize-html","268","536451","0.0-6.0-165.0","24371","20224120","rare"
"1498.699999988079","false","diamond","80","81,80","diamond,hexagon,circle,triangle,square","A","","","","","test","83","true","1","categorize-html","270","539475","0.0-6.0-167.0","24371","20224120","rare"
"892.1999999880791","false","hexagon","81","81,80","diamond,hexagon,circle,triangle,square","B","","","","","test","84","true","1","categorize-html","272","541896","0.0-6.0-169.0","24371","20224120","common"
"1175.2999999523163","false","hexagon,circle","80","81,80","diamond,hexagon,circle,triangle,square","B","C","","","","test","85","true","1","categorize-html","274","544599","0.0-6.0-171.0","24371","20224120","rare"
"1108","false","diamond","81","81,80","diamond,hexagon,circle,triangle,square","A","","","","","test","86","true","1","categorize-html","276","547216","0.0-6.0-173.0","24371","20224120","common"
"1383.3999999761581","false","diamond,circle","80","81,80","diamond,hexagon,circle,triangle,square","A","C","","","","test","87","true","1","categorize-html","278","550109","0.0-6.0-175.0","24371","20224120","rare"
"2051.699999988079","false","circle","81","81,80","diamond,hexagon,circle,triangle,square","C","","","","","test","88","true","1","categorize-html","280","553681","0.0-6.0-177.0","24371","20224120","common"
"845.1999999880791","false","diamond","81","81,80","diamond,hexagon,circle,triangle,square","A","","","","","test","89","true","1","categorize-html","282","556053","0.0-6.0-179.0","24371","20224120","common"
"2033.7000000476837","false","hexagon,diamond","81","81,80","diamond,hexagon,circle,triangle,square","B","A","","","","test","90","true","1","categorize-html","284","559596","0.0-6.0-181.0","24371","20224120","common"
"1634.699999988079","false","circle","80","81,80","diamond,hexagon,circle,triangle,square","C","","","","","test","91","true","1","categorize-html","286","562746","0.0-6.0-183.0","24371","20224120","rare"
"849.7000000476837","false","hexagon","81","81,80","diamond,hexagon,circle,triangle,square","B","","","","","test","92","true","1","categorize-html","288","565114","0.0-6.0-185.0","24371","20224120","common"
"2047.5","false","circle,diamond","80","81,80","diamond,hexagon,circle,triangle,square","C","A","","","","test","93","true","1","categorize-html","290","568678","0.0-6.0-187.0","24371","20224120","rare"
"704","false","hexagon","81","81,80","diamond,hexagon,circle,triangle,square","B","","","","","test","94","true","1","categorize-html","292","570902","0.0-6.0-189.0","24371","20224120","common"
"3138.600000023842","false","circle,hexagon","81","81,80","diamond,hexagon,circle,triangle,square","C","B","","","","test","95","true","1","categorize-html","294","575561","0.0-6.0-191.0","24371","20224120","common"
"2606.5","false","diamond,hexagon","81","81,80","diamond,hexagon,circle,triangle,square","A","B","","","","test","96","true","1","categorize-html","296","579682","0.0-6.0-193.0","24371","20224120","common"
"1689.5","false","diamond","80","81,80","diamond,hexagon,circle,triangle,square","A","","","","","test","97","true","1","categorize-html","299","584307","0.0-6.0-196.0","24371","20224120","rare"
"990.1999999880791","false","circle","80","81,80","diamond,hexagon,circle,triangle,square","C","","","","","test","98","true","1","categorize-html","301","586829","0.0-6.0-198.0","24371","20224120","rare"
"772","false","hexagon","81","81,80","diamond,hexagon,circle,triangle,square","B","","","","","test","99","true","1","categorize-html","303","589126","0.0-6.0-200.0","24371","20224120","common"
"1936.5","false","hexagon,circle","80","81,80","diamond,hexagon,circle,triangle,square","B","C","","","","test","100","true","1","categorize-html","305","592579","0.0-6.0-202.0","24371","20224120","rare"
"748.5","false","hexagon","81","81,80","diamond,hexagon,circle,triangle,square","B","","","","","test","101","true","1","categorize-html","307","594849","0.0-6.0-204.0","24371","20224120","common"
"899.8000000119209","false","circle","80","81,80","diamond,hexagon,circle,triangle,square","C","","","","","test","102","true","1","categorize-html","309","597278","0.0-6.0-206.0","24371","20224120","rare"
"760","false","hexagon,diamond","81","81,80","diamond,hexagon,circle,triangle,square","B","A","","","","test","103","true","1","categorize-html","311","599564","0.0-6.0-208.0","24371","20224120","common"
"2097","false","diamond,hexagon","81","81,80","diamond,hexagon,circle,triangle,square","A","B","","","","test","104","true","1","categorize-html","313","603181","0.0-6.0-210.0","24371","20224120","common"
"3287.099999964237","false","diamond","80","81,80","diamond,hexagon,circle,triangle,square","A","","","","","test","105","true","1","categorize-html","315","607981","0.0-6.0-212.0","24371","20224120","rare"
"1459.800000011921","false","circle,diamond","80","81,80","diamond,hexagon,circle,triangle,square","C","A","","","","test","106","true","1","categorize-html","317","610961","0.0-6.0-214.0","24371","20224120","rare"
"1194.3999999761581","false","diamond,circle","80","81,80","diamond,hexagon,circle,triangle,square","A","C","","","","test","107","true","1","categorize-html","319","613664","0.0-6.0-216.0","24371","20224120","rare"
"3090.399999976158","false","circle,hexagon","81","81,80","diamond,hexagon,circle,triangle,square","C","B","","","","test","108","true","1","categorize-html","321","618271","0.0-6.0-218.0","24371","20224120","common"
"1268.1000000238419","false","diamond,circle","80","81,80","diamond,hexagon,circle,triangle,square","A","C","","","","test","109","true","1","categorize-html","323","621048","0.0-6.0-220.0","24371","20224120","rare"
"1211.300000011921","false","diamond,hexagon","81","81,80","diamond,hexagon,circle,triangle,square","A","B","","","","test","110","true","1","categorize-html","325","623780","0.0-6.0-222.0","24371","20224120","common"
"2847.899999976158","false","hexagon,diamond","81","81,80","diamond,hexagon,circle,triangle,square","B","A","","","","test","111","true","1","categorize-html","327","628145","0.0-6.0-224.0","24371","20224120","common"
"1925.800000011921","false","hexagon,circle","81","81,80","diamond,hexagon,circle,triangle,square","B","C","","","","test","112","true","1","categorize-html","329","631584","0.0-6.0-226.0","24371","20224120","common"
"1063.8999999761581","false","circle,hexagon","81","81,80","diamond,hexagon,circle,triangle,square","C","B","","","","test","113","true","1","categorize-html","331","634180","0.0-6.0-228.0","24371","20224120","common"
"1247.5","false","circle,diamond","80","81,80","diamond,hexagon,circle,triangle,square","C","A","","","","test","114","true","1","categorize-html","333","636944","0.0-6.0-230.0","24371","20224120","rare"
"921.8999999761581","false","hexagon","81","81,80","diamond,hexagon,circle,triangle,square","B","","","","","test","115","true","1","categorize-html","335","639383","0.0-6.0-232.0","24371","20224120","common"
"453.19999998807907","false","circle","80","81,80","diamond,hexagon,circle,triangle,square","C","","","","","test","116","true","1","categorize-html","337","641360","0.0-6.0-234.0","24371","20224120","rare"
"772.6999999880791","false","hexagon","81","81,80","diamond,hexagon,circle,triangle,square","B","","","","","test","117","true","1","categorize-html","339","643665","0.0-6.0-236.0","24371","20224120","common"
"1330.800000011921","false","diamond","80","81,80","diamond,hexagon,circle,triangle,square","A","","","","","test","118","true","1","categorize-html","341","646518","0.0-6.0-238.0","24371","20224120","rare"
"1944.3999999761581","false","circle","80","81,80","diamond,hexagon,circle,triangle,square","C","","","","","test","119","true","1","categorize-html","343","649975","0.0-6.0-240.0","24371","20224120","rare"
"664.5","false","diamond","80","81,80","diamond,hexagon,circle,triangle,square","A","","","","","test","120","true","1","categorize-html","345","652156","0.0-6.0-242.0","24371","20224120","rare"
