"rt","correct","stimulus","key_press","keys","symptoms_shuffle","symptom1","symptom2","symptom3","key","category","phase","trial","include","block","trial_type","trial_index","time_elapsed","internal_node_id","ppt","session","abresp"
"null","false","triangle,hexagon,square","null","80,81","square,hexagon,diamond,triangle,circle","D","B","A","80","common","training","1","true","1","categorize-html","4","135117","0.0-4.0-0.0","23336","20224321","none"
"1956.5","false","square,hexagon,triangle","32","80,81","square,hexagon,diamond,triangle,circle","A","B","D","80","common","training","2","true","1","categorize-html","6","138083","0.0-4.0-2.0","23336","20224321","none"
"1273.0999999642372","false","hexagon,square,triangle","32","80,81","square,hexagon,diamond,triangle,circle","B","A","D","80","common","training","3","true","1","categorize-html","8","140369","0.0-4.0-4.0","23336","20224321","none"
"1581.4000000357628","false","circle,square,diamond","32","80,81","square,hexagon,diamond,triangle,circle","E","A","C","81","rare","training","4","true","1","categorize-html","10","142963","0.0-4.0-6.0","23336","20224321","none"
"813.1999999880791","false","hexagon,triangle,square","32","80,81","square,hexagon,diamond,triangle,circle","B","D","A","80","common","training","5","true","1","categorize-html","12","144788","0.0-4.0-8.0","23336","20224321","none"
"895.8000000119209","false","hexagon,triangle,square","32","80,81","square,hexagon,diamond,triangle,circle","B","D","A","80","common","training","6","true","1","categorize-html","14","146689","0.0-4.0-10.0","23336","20224321","none"
"696.5","false","hexagon,square,triangle","32","80,81","square,hexagon,diamond,triangle,circle","B","A","D","80","common","training","7","true","1","categorize-html","16","148396","0.0-4.0-12.0","23336","20224321","none"
"780.0999999642372","false","square,hexagon,triangle","32","80,81","square,hexagon,diamond,triangle,circle","A","B","D","80","common","training","8","true","1","categorize-html","18","150189","0.0-4.0-14.0","23336","20224321","none"
"605.0999999642372","false","triangle,square,hexagon","32","80,81","square,hexagon,diamond,triangle,circle","D","A","B","80","common","training","9","true","1","categorize-html","20","151802","0.0-4.0-16.0","23336","20224321","none"
"630.1000000238419","false","triangle,hexagon,square","32","80,81","square,hexagon,diamond,triangle,circle","D","B","A","80","common","training","10","true","1","categorize-html","22","153444","0.0-4.0-18.0","23336","20224321","none"
"655.5","false","square,circle,diamond","32","80,81","square,hexagon,diamond,triangle,circle","A","E","C","81","rare","training","11","true","1","categorize-html","24","155109","0.0-4.0-20.0","23336","20224321","none"
"863.3999999761581","false","hexagon,square,triangle","32","80,81","square,hexagon,diamond,triangle,circle","B","A","D","80","common","training","12","true","1","categorize-html","26","156980","0.0-4.0-22.0","23336","20224321","none"
"799.9000000357628","false","hexagon,triangle,square","32","80,81","square,hexagon,diamond,triangle,circle","B","D","A","80","common","training","13","true","1","categorize-html","28","158787","0.0-4.0-24.0","23336","20224321","none"
"612.5","false","square,triangle,hexagon","32","80,81","square,hexagon,diamond,triangle,circle","A","D","B","80","common","training","14","true","1","categorize-html","30","160412","0.0-4.0-26.0","23336","20224321","none"
"626.6999999880791","false","circle,diamond,square","32","80,81","square,hexagon,diamond,triangle,circle","E","C","A","81","rare","training","15","true","1","categorize-html","32","162047","0.0-4.0-28.0","23336","20224321","none"
"524","false","triangle,square,hexagon","32","80,81","square,hexagon,diamond,triangle,circle","D","A","B","80","common","training","16","true","1","categorize-html","34","163580","0.0-4.0-30.0","23336","20224321","none"
"647.5","false","triangle,square,hexagon","32","80,81","square,hexagon,diamond,triangle,circle","D","A","B","80","common","training","17","true","1","categorize-html","36","165240","0.0-4.0-32.0","23336","20224321","none"
"304.30000001192093","false","square,diamond,circle","32","80,81","square,hexagon,diamond,triangle,circle","A","C","E","81","rare","training","18","true","1","categorize-html","38","166557","0.0-4.0-34.0","23336","20224321","none"
"241.39999997615814","false","square,triangle,hexagon","32","80,81","square,hexagon,diamond,triangle,circle","A","D","B","80","common","training","19","true","1","categorize-html","40","167810","0.0-4.0-36.0","23336","20224321","none"
"651.4000000357628","false","diamond,square,circle","32","80,81","square,hexagon,diamond,triangle,circle","C","A","E","81","rare","training","20","true","1","categorize-html","42","169474","0.0-4.0-38.0","23336","20224321","none"
"874.7000000476837","false","square,hexagon,triangle","32","80,81","square,hexagon,diamond,triangle,circle","A","B","D","80","common","training","21","true","1","categorize-html","44","171361","0.0-4.0-40.0","23336","20224321","none"
"772.0999999642372","false","diamond,circle,square","32","80,81","square,hexagon,diamond,triangle,circle","C","E","A","81","rare","training","22","true","1","categorize-html","46","173146","0.0-4.0-42.0","23336","20224321","none"
"710.5","false","square,triangle,hexagon","32","80,81","square,hexagon,diamond,triangle,circle","A","D","B","80","common","training","23","true","1","categorize-html","48","174866","0.0-4.0-44.0","23336","20224321","none"
"910.6000000238419","false","triangle,hexagon,square","32","80,81","square,hexagon,diamond,triangle,circle","D","B","A","80","common","training","24","true","1","categorize-html","50","176782","0.0-4.0-46.0","23336","20224321","none"
"4355.699999988079","false","hexagon","80","80,81","square,hexagon,diamond,triangle,circle","B","","","","","test","1","true","1","categorize-html","54","306408","0.0-6.0-0.0","23336","20224321","common"
"1945.1000000238419","false","square,hexagon","80","80,81","square,hexagon,diamond,triangle,circle","A","B","","","","test","2","true","1","categorize-html","56","309863","0.0-6.0-2.0","23336","20224321","common"
"1445","false","diamond,hexagon","81","80,81","square,hexagon,diamond,triangle,circle","C","B","","","","test","3","true","1","categorize-html","58","312821","0.0-6.0-4.0","23336","20224321","rare"
"677.5999999642372","false","hexagon,diamond","80","80,81","square,hexagon,diamond,triangle,circle","B","C","","","","test","4","true","1","categorize-html","60","315013","0.0-6.0-6.0","23336","20224321","common"
"666.8999999761581","false","square,diamond","80","80,81","square,hexagon,diamond,triangle,circle","A","C","","","","test","5","true","1","categorize-html","62","317187","0.0-6.0-8.0","23336","20224321","common"
"1470.1000000238419","false","diamond","81","80,81","square,hexagon,diamond,triangle,circle","C","","","","","test","6","true","1","categorize-html","64","320166","0.0-6.0-10.0","23336","20224321","rare"
"1005","false","hexagon,square","80","80,81","square,hexagon,diamond,triangle,circle","B","A","","","","test","7","true","1","categorize-html","66","322679","0.0-6.0-12.0","23336","20224321","common"
"442","false","diamond","80","80,81","square,hexagon,diamond,triangle,circle","C","","","","","test","8","true","1","categorize-html","68","324634","0.0-6.0-14.0","23336","20224321","common"
"558.5","false","square","81","80,81","square,hexagon,diamond,triangle,circle","A","","","","","test","9","true","1","categorize-html","70","326704","0.0-6.0-16.0","23336","20224321","rare"
"356.10000002384186","false","square","80","80,81","square,hexagon,diamond,triangle,circle","A","","","","","test","10","true","1","categorize-html","72","328570","0.0-6.0-18.0","23336","20224321","common"
"439.69999998807907","false","hexagon","80","80,81","square,hexagon,diamond,triangle,circle","B","","","","","test","11","true","1","categorize-html","74","330521","0.0-6.0-20.0","23336","20224321","common"
"730.6000000238419","false","diamond,square","80","80,81","square,hexagon,diamond,triangle,circle","C","A","","","","test","12","true","1","categorize-html","76","332765","0.0-6.0-22.0","23336","20224321","common"
"1872.1000000238419","false","hexagon","81","80,81","square,hexagon,diamond,triangle,circle","B","","","","","test","13","true","1","categorize-html","78","336145","0.0-6.0-24.0","23336","20224321","rare"
"1129.199999988079","false","hexagon,diamond","80","80,81","square,hexagon,diamond,triangle,circle","B","C","","","","test","14","true","1","categorize-html","80","338786","0.0-6.0-26.0","23336","20224321","common"
"499.5999999642372","false","square","80","80,81","square,hexagon,diamond,triangle,circle","A","","","","","test","15","true","1","categorize-html","82","340795","0.0-6.0-28.0","23336","20224321","common"
"1124.300000011921","false","square","80","80,81","square,hexagon,diamond,triangle,circle","A","","","","","test","16","true","1","categorize-html","84","343432","0.0-6.0-30.0","23336","20224321","common"
"564.8999999761581","false","square,hexagon","80","80,81","square,hexagon,diamond,triangle,circle","A","B","","","","test","17","true","1","categorize-html","86","345508","0.0-6.0-32.0","23336","20224321","common"
"236.5999999642372","false","square,diamond","81","80,81","square,hexagon,diamond,triangle,circle","A","C","","","","test","18","true","1","categorize-html","88","347255","0.0-6.0-34.0","23336","20224321","rare"
"848.5","false","diamond","80","80,81","square,hexagon,diamond,triangle,circle","C","","","","","test","19","true","1","categorize-html","90","349612","0.0-6.0-36.0","23336","20224321","common"
"623.3999999761581","false","diamond,square","80","80,81","square,hexagon,diamond,triangle,circle","C","A","","","","test","20","true","1","categorize-html","92","351747","0.0-6.0-38.0","23336","20224321","common"
"430.60000002384186","false","diamond","81","80,81","square,hexagon,diamond,triangle,circle","C","","","","","test","21","true","1","categorize-html","94","353687","0.0-6.0-40.0","23336","20224321","rare"
"1379.1000000238419","false","diamond,hexagon","80","80,81","square,hexagon,diamond,triangle,circle","C","B","","","","test","22","true","1","categorize-html","96","356575","0.0-6.0-42.0","23336","20224321","common"
"339.2000000476837","false","hexagon,square","80","80,81","square,hexagon,diamond,triangle,circle","B","A","","","","test","23","true","1","categorize-html","98","358427","0.0-6.0-44.0","23336","20224321","common"
"331.39999997615814","false","hexagon","81","80,81","square,hexagon,diamond,triangle,circle","B","","","","","test","24","true","1","categorize-html","100","360269","0.0-6.0-46.0","23336","20224321","rare"
"952.8000000119209","false","hexagon,square","80","80,81","square,hexagon,diamond,triangle,circle","B","A","","","","test","25","true","1","categorize-html","103","365308","0.0-6.0-49.0","23336","20224321","common"
"621.3000000119209","false","square","81","80,81","square,hexagon,diamond,triangle,circle","A","","","","","test","26","true","1","categorize-html","105","367437","0.0-6.0-51.0","23336","20224321","rare"
"356.89999997615814","false","diamond","80","80,81","square,hexagon,diamond,triangle,circle","C","","","","","test","27","true","1","categorize-html","107","369306","0.0-6.0-53.0","23336","20224321","common"
"658.0999999642372","false","square,hexagon","80","80,81","square,hexagon,diamond,triangle,circle","A","B","","","","test","28","true","1","categorize-html","109","371475","0.0-6.0-55.0","23336","20224321","common"
"704.8000000119209","false","square,diamond","81","80,81","square,hexagon,diamond,triangle,circle","A","C","","","","test","29","true","1","categorize-html","111","373690","0.0-6.0-57.0","23336","20224321","rare"
"667.3999999761581","false","hexagon","81","80,81","square,hexagon,diamond,triangle,circle","B","","","","","test","30","true","1","categorize-html","113","375870","0.0-6.0-59.0","23336","20224321","rare"
"284.7000000476837","false","square","80","80,81","square,hexagon,diamond,triangle,circle","A","","","","","test","31","true","1","categorize-html","115","377667","0.0-6.0-61.0","23336","20224321","common"
"411.30000001192093","false","hexagon,diamond","81","80,81","square,hexagon,diamond,triangle,circle","B","C","","","","test","32","true","1","categorize-html","117","379588","0.0-6.0-63.0","23336","20224321","rare"
"284.4000000357628","false","diamond,hexagon","80","80,81","square,hexagon,diamond,triangle,circle","C","B","","","","test","33","true","1","categorize-html","119","381385","0.0-6.0-65.0","23336","20224321","common"
"223.39999997615814","false","diamond,square","80","80,81","square,hexagon,diamond,triangle,circle","C","A","","","","test","34","true","1","categorize-html","121","383121","0.0-6.0-67.0","23336","20224321","common"
"480.39999997615814","false","diamond","80","80,81","square,hexagon,diamond,triangle,circle","C","","","","","test","35","true","1","categorize-html","123","385111","0.0-6.0-69.0","23336","20224321","common"
"504.5","false","hexagon","80","80,81","square,hexagon,diamond,triangle,circle","B","","","","","test","36","true","1","categorize-html","125","387126","0.0-6.0-71.0","23336","20224321","common"
"1412.4000000357628","false","hexagon,square","80","80,81","square,hexagon,diamond,triangle,circle","B","A","","","","test","37","true","1","categorize-html","127","390052","0.0-6.0-73.0","23336","20224321","common"
"428.19999998807907","false","diamond,hexagon","80","80,81","square,hexagon,diamond,triangle,circle","C","B","","","","test","38","true","1","categorize-html","129","391993","0.0-6.0-75.0","23336","20224321","common"
"50","false","square","80","80,81","square,hexagon,diamond,triangle,circle","A","","","","","test","39","true","1","categorize-html","131","393551","0.0-6.0-77.0","23336","20224321","common"
"945.8000000119209","false","square,hexagon","80","80,81","square,hexagon,diamond,triangle,circle","A","B","","","","test","40","true","1","categorize-html","133","396002","0.0-6.0-79.0","23336","20224321","common"
"369.69999998807907","false","diamond,square","80","80,81","square,hexagon,diamond,triangle,circle","C","A","","","","test","41","true","1","categorize-html","135","397882","0.0-6.0-81.0","23336","20224321","common"
"1330.1000000238419","false","hexagon","81","80,81","square,hexagon,diamond,triangle,circle","B","","","","","test","42","true","1","categorize-html","137","400724","0.0-6.0-83.0","23336","20224321","rare"
"389.5999999642372","false","hexagon,diamond","81","80,81","square,hexagon,diamond,triangle,circle","B","C","","","","test","43","true","1","categorize-html","139","402627","0.0-6.0-85.0","23336","20224321","rare"
"422.19999998807907","false","hexagon","80","80,81","square,hexagon,diamond,triangle,circle","B","","","","","test","44","true","1","categorize-html","141","404560","0.0-6.0-87.0","23336","20224321","common"
"510.9000000357628","false","square","80","80,81","square,hexagon,diamond,triangle,circle","A","","","","","test","45","true","1","categorize-html","143","406582","0.0-6.0-89.0","23336","20224321","common"
"547.9000000357628","false","square,diamond","80","80,81","square,hexagon,diamond,triangle,circle","A","C","","","","test","46","true","1","categorize-html","145","408640","0.0-6.0-91.0","23336","20224321","common"
"361.60000002384186","false","diamond","80","80,81","square,hexagon,diamond,triangle,circle","C","","","","","test","47","true","1","categorize-html","147","410514","0.0-6.0-93.0","23336","20224321","common"
"249.69999998807907","false","diamond","81","80,81","square,hexagon,diamond,triangle,circle","C","","","","","test","48","true","1","categorize-html","149","412275","0.0-6.0-95.0","23336","20224321","rare"
"1991","false","square","80","80,81","square,hexagon,diamond,triangle,circle","A","","","","","test","49","true","1","categorize-html","152","545320","0.0-6.0-98.0","23336","20224321","common"
"912.6999999880791","false","diamond","80","80,81","square,hexagon,diamond,triangle,circle","C","","","","","test","50","true","1","categorize-html","154","547741","0.0-6.0-100.0","23336","20224321","common"
"547.7999999523163","false","square,diamond","81","80,81","square,hexagon,diamond,triangle,circle","A","C","","","","test","51","true","1","categorize-html","156","549801","0.0-6.0-102.0","23336","20224321","rare"
"786.5","false","hexagon,diamond","81","80,81","square,hexagon,diamond,triangle,circle","B","C","","","","test","52","true","1","categorize-html","158","552096","0.0-6.0-104.0","23336","20224321","rare"
"405.2999999523163","false","diamond,square","80","80,81","square,hexagon,diamond,triangle,circle","C","A","","","","test","53","true","1","categorize-html","160","554009","0.0-6.0-106.0","23336","20224321","common"
"344.9000000357628","false","square,hexagon","80","80,81","square,hexagon,diamond,triangle,circle","A","B","","","","test","54","true","1","categorize-html","162","555860","0.0-6.0-108.0","23336","20224321","common"
"123.20000004768372","false","hexagon,square","81","80,81","square,hexagon,diamond,triangle,circle","B","A","","","","test","55","true","1","categorize-html","164","557490","0.0-6.0-110.0","23336","20224321","rare"
"323.2999999523163","false","hexagon","80","80,81","square,hexagon,diamond,triangle,circle","B","","","","","test","56","true","1","categorize-html","166","559324","0.0-6.0-112.0","23336","20224321","common"
"302.9000000357628","false","diamond","80","80,81","square,hexagon,diamond,triangle,circle","C","","","","","test","57","true","1","categorize-html","168","561139","0.0-6.0-114.0","23336","20224321","common"
"297.60000002384186","false","square","80","80,81","square,hexagon,diamond,triangle,circle","A","","","","","test","58","true","1","categorize-html","170","562949","0.0-6.0-116.0","23336","20224321","common"
"291.0999999642372","false","hexagon","81","80,81","square,hexagon,diamond,triangle,circle","B","","","","","test","59","true","1","categorize-html","172","564752","0.0-6.0-118.0","23336","20224321","rare"
"226.60000002384186","false","diamond,hexagon","81","80,81","square,hexagon,diamond,triangle,circle","C","B","","","","test","60","true","1","categorize-html","174","566487","0.0-6.0-120.0","23336","20224321","rare"
"197.5","false","diamond","80","80,81","square,hexagon,diamond,triangle,circle","C","","","","","test","61","true","1","categorize-html","176","568193","0.0-6.0-122.0","23336","20224321","common"
"413.7999999523163","false","square","80","80,81","square,hexagon,diamond,triangle,circle","A","","","","","test","62","true","1","categorize-html","178","570119","0.0-6.0-124.0","23336","20224321","common"
"295.5","false","hexagon,diamond","81","80,81","square,hexagon,diamond,triangle,circle","B","C","","","","test","63","true","1","categorize-html","180","571927","0.0-6.0-126.0","23336","20224321","rare"
"291.39999997615814","false","square,hexagon","81","80,81","square,hexagon,diamond,triangle,circle","A","B","","","","test","64","true","1","categorize-html","182","573725","0.0-6.0-128.0","23336","20224321","rare"
"316.7000000476837","false","hexagon","80","80,81","square,hexagon,diamond,triangle,circle","B","","","","","test","65","true","1","categorize-html","184","575554","0.0-6.0-130.0","23336","20224321","common"
"269","false","square,diamond","80","80,81","square,hexagon,diamond,triangle,circle","A","C","","","","test","66","true","1","categorize-html","186","577335","0.0-6.0-132.0","23336","20224321","common"
"328.30000001192093","false","diamond,hexagon","80","80,81","square,hexagon,diamond,triangle,circle","C","B","","","","test","67","true","1","categorize-html","188","579171","0.0-6.0-134.0","23336","20224321","common"
"1409.9000000357628","false","diamond,square","81","80,81","square,hexagon,diamond,triangle,circle","C","A","","","","test","68","true","1","categorize-html","190","582090","0.0-6.0-136.0","23336","20224321","rare"
"267.5","false","square","81","80,81","square,hexagon,diamond,triangle,circle","A","","","","","test","69","true","1","categorize-html","192","583870","0.0-6.0-138.0","23336","20224321","rare"
"255.70000004768372","false","hexagon,square","80","80,81","square,hexagon,diamond,triangle,circle","B","A","","","","test","70","true","1","categorize-html","194","585639","0.0-6.0-140.0","23336","20224321","common"
"231.30000001192093","false","diamond","80","80,81","square,hexagon,diamond,triangle,circle","C","","","","","test","71","true","1","categorize-html","196","587384","0.0-6.0-142.0","23336","20224321","common"
"335.5","false","hexagon","80","80,81","square,hexagon,diamond,triangle,circle","B","","","","","test","72","true","1","categorize-html","198","589230","0.0-6.0-144.0","23336","20224321","common"
"1230.199999988079","false","square,diamond","80","80,81","square,hexagon,diamond,triangle,circle","A","C","","","","test","73","true","1","categorize-html","201","757857","0.0-6.0-147.0","23336","20224321","common"
"127.19999998807907","false","square,hexagon","80","80,81","square,hexagon,diamond,triangle,circle","A","B","","","","test","74","true","1","categorize-html","203","759491","0.0-6.0-149.0","23336","20224321","common"
"1338.6000000238419","false","square","81","80,81","square,hexagon,diamond,triangle,circle","A","","","","","test","75","true","1","categorize-html","205","762342","0.0-6.0-151.0","23336","20224321","rare"
"459.69999998807907","false","diamond","80","80,81","square,hexagon,diamond,triangle,circle","C","","","","","test","76","true","1","categorize-html","207","764314","0.0-6.0-153.0","23336","20224321","common"
"1280.199999988079","false","square","80","80,81","square,hexagon,diamond,triangle,circle","A","","","","","test","77","true","1","categorize-html","209","767102","0.0-6.0-155.0","23336","20224321","common"
"131.30000001192093","false","hexagon","80","80,81","square,hexagon,diamond,triangle,circle","B","","","","","test","78","true","1","categorize-html","211","768746","0.0-6.0-157.0","23336","20224321","common"
"1307.2999999523163","false","hexagon","81","80,81","square,hexagon,diamond,triangle,circle","B","","","","","test","79","true","1","categorize-html","213","771560","0.0-6.0-159.0","23336","20224321","rare"
"299.10000002384186","false","diamond,hexagon","80","80,81","square,hexagon,diamond,triangle,circle","C","B","","","","test","80","true","1","categorize-html","215","773372","0.0-6.0-161.0","23336","20224321","common"
"813.1999999880791","false","diamond","80","80,81","square,hexagon,diamond,triangle,circle","C","","","","","test","81","true","1","categorize-html","217","775697","0.0-6.0-163.0","23336","20224321","common"
"344.60000002384186","false","hexagon,diamond","80","80,81","square,hexagon,diamond,triangle,circle","B","C","","","","test","82","true","1","categorize-html","219","777554","0.0-6.0-165.0","23336","20224321","common"
"235.39999997615814","false","hexagon,square","81","80,81","square,hexagon,diamond,triangle,circle","B","A","","","","test","83","true","1","categorize-html","221","779300","0.0-6.0-167.0","23336","20224321","rare"
"211.19999998807907","false","diamond,square","81","80,81","square,hexagon,diamond,triangle,circle","C","A","","","","test","84","true","1","categorize-html","223","781024","0.0-6.0-169.0","23336","20224321","rare"
"322.7000000476837","false","diamond,hexagon","81","80,81","square,hexagon,diamond,triangle,circle","C","B","","","","test","85","true","1","categorize-html","225","782856","0.0-6.0-171.0","23336","20224321","rare"
"235.4000000357628","false","square","80","80,81","square,hexagon,diamond,triangle,circle","A","","","","","test","86","true","1","categorize-html","227","784600","0.0-6.0-173.0","23336","20224321","common"
"377.0999999642372","false","diamond","80","80,81","square,hexagon,diamond,triangle,circle","C","","","","","test","87","true","1","categorize-html","229","786484","0.0-6.0-175.0","23336","20224321","common"
"9.899999976158142","false","diamond","81","80,81","square,hexagon,diamond,triangle,circle","C","","","","","test","88","true","1","categorize-html","231","788002","0.0-6.0-177.0","23336","20224321","rare"
"489.5","false","square,hexagon","80","80,81","square,hexagon,diamond,triangle,circle","A","B","","","","test","89","true","1","categorize-html","233","790004","0.0-6.0-179.0","23336","20224321","common"
"1487.8999999761581","false","hexagon","80","80,81","square,hexagon,diamond,triangle,circle","B","","","","","test","90","true","1","categorize-html","235","793000","0.0-6.0-181.0","23336","20224321","common"
"1476.8999999761581","false","diamond,square","80","80,81","square,hexagon,diamond,triangle,circle","C","A","","","","test","91","true","1","categorize-html","237","795984","0.0-6.0-183.0","23336","20224321","common"
"827.0999999642372","false","square","80","80,81","square,hexagon,diamond,triangle,circle","A","","","","","test","92","true","1","categorize-html","239","798317","0.0-6.0-185.0","23336","20224321","common"
"212.69999998807907","false","hexagon,square","81","80,81","square,hexagon,diamond,triangle,circle","B","A","","","","test","93","true","1","categorize-html","241","800042","0.0-6.0-187.0","23336","20224321","rare"
"328.5999999642372","false","hexagon,diamond","80","80,81","square,hexagon,diamond,triangle,circle","B","C","","","","test","94","true","1","categorize-html","243","801883","0.0-6.0-189.0","23336","20224321","common"
"64.69999998807907","false","hexagon","80","80,81","square,hexagon,diamond,triangle,circle","B","","","","","test","95","true","1","categorize-html","245","803461","0.0-6.0-191.0","23336","20224321","common"
"29.900000035762787","false","square,diamond","80","80,81","square,hexagon,diamond,triangle,circle","A","C","","","","test","96","true","1","categorize-html","247","804995","0.0-6.0-193.0","23336","20224321","common"
"759.8999999761581","false","hexagon","80","80,81","square,hexagon,diamond,triangle,circle","B","","","","","test","97","true","1","categorize-html","250","859518","0.0-6.0-196.0","23336","20224321","common"
"175","false","diamond,hexagon","81","80,81","square,hexagon,diamond,triangle,circle","C","B","","","","test","98","true","1","categorize-html","252","861201","0.0-6.0-198.0","23336","20224321","rare"
"248.10000002384186","false","hexagon,diamond","81","80,81","square,hexagon,diamond,triangle,circle","B","C","","","","test","99","true","1","categorize-html","254","862960","0.0-6.0-200.0","23336","20224321","rare"
"366.30000001192093","false","hexagon,square","80","80,81","square,hexagon,diamond,triangle,circle","B","A","","","","test","100","true","1","categorize-html","256","864832","0.0-6.0-202.0","23336","20224321","common"
"661.1000000238419","false","square,hexagon","80","80,81","square,hexagon,diamond,triangle,circle","A","B","","","","test","101","true","1","categorize-html","258","867006","0.0-6.0-204.0","23336","20224321","common"
"521.3999999761581","false","hexagon","81","80,81","square,hexagon,diamond,triangle,circle","B","","","","","test","102","true","1","categorize-html","260","869038","0.0-6.0-206.0","23336","20224321","rare"
"279.4000000357628","false","diamond","80","80,81","square,hexagon,diamond,triangle,circle","C","","","","","test","103","true","1","categorize-html","262","870827","0.0-6.0-208.0","23336","20224321","common"
"294.19999998807907","false","square","80","80,81","square,hexagon,diamond,triangle,circle","A","","","","","test","104","true","1","categorize-html","264","872629","0.0-6.0-210.0","23336","20224321","common"
"163.9000000357628","false","diamond","81","80,81","square,hexagon,diamond,triangle,circle","C","","","","","test","105","true","1","categorize-html","266","874302","0.0-6.0-212.0","23336","20224321","rare"
"458.60000002384186","false","diamond,square","81","80,81","square,hexagon,diamond,triangle,circle","C","A","","","","test","106","true","1","categorize-html","268","876272","0.0-6.0-214.0","23336","20224321","rare"
"1077.7000000476837","false","square","80","80,81","square,hexagon,diamond,triangle,circle","A","","","","","test","107","true","1","categorize-html","270","878858","0.0-6.0-216.0","23336","20224321","common"
"374.5","false","square,diamond","80","80,81","square,hexagon,diamond,triangle,circle","A","C","","","","test","108","true","1","categorize-html","272","880742","0.0-6.0-218.0","23336","20224321","common"
"281.5","false","square,diamond","80","80,81","square,hexagon,diamond,triangle,circle","A","C","","","","test","109","true","1","categorize-html","274","882536","0.0-6.0-220.0","23336","20224321","common"
"226.0999999642372","false","diamond","81","80,81","square,hexagon,diamond,triangle,circle","C","","","","","test","110","true","1","categorize-html","276","884270","0.0-6.0-222.0","23336","20224321","rare"
"128.69999998807907","false","square,hexagon","80","80,81","square,hexagon,diamond,triangle,circle","A","B","","","","test","111","true","1","categorize-html","278","885907","0.0-6.0-224.0","23336","20224321","common"
"246.19999998807907","false","diamond,square","81","80,81","square,hexagon,diamond,triangle,circle","C","A","","","","test","112","true","1","categorize-html","280","887665","0.0-6.0-226.0","23336","20224321","rare"
"1217.7000000476837","false","hexagon","81","80,81","square,hexagon,diamond,triangle,circle","B","","","","","test","113","true","1","categorize-html","282","890392","0.0-6.0-228.0","23336","20224321","rare"
"1600.199999988079","false","diamond","80","80,81","square,hexagon,diamond,triangle,circle","C","","","","","test","114","true","1","categorize-html","284","893499","0.0-6.0-230.0","23336","20224321","common"
"236.10000002384186","false","hexagon,diamond","81","80,81","square,hexagon,diamond,triangle,circle","B","C","","","","test","115","true","1","categorize-html","286","895247","0.0-6.0-232.0","23336","20224321","rare"
"436.69999998807907","false","square","80","80,81","square,hexagon,diamond,triangle,circle","A","","","","","test","116","true","1","categorize-html","288","897194","0.0-6.0-234.0","23336","20224321","common"
"268","false","hexagon,square","80","80,81","square,hexagon,diamond,triangle,circle","B","A","","","","test","117","true","1","categorize-html","290","898971","0.0-6.0-236.0","23336","20224321","common"
"326.30000001192093","false","diamond,hexagon","80","80,81","square,hexagon,diamond,triangle,circle","C","B","","","","test","118","true","1","categorize-html","292","900805","0.0-6.0-238.0","23336","20224321","common"
"419.10000002384186","false","hexagon","81","80,81","square,hexagon,diamond,triangle,circle","B","","","","","test","119","true","1","categorize-html","294","902734","0.0-6.0-240.0","23336","20224321","rare"
"502.39999997615814","false","square","80","80,81","square,hexagon,diamond,triangle,circle","A","","","","","test","120","true","1","categorize-html","296","904743","0.0-6.0-242.0","23336","20224321","common"
