"rt","correct","stimulus","key_press","keys","symptoms_shuffle","symptom1","symptom2","symptom3","key","category","phase","trial","include","block","trial_type","trial_index","time_elapsed","internal_node_id","ppt","session","abresp"
"null","false","triangle,diamond,circle","null","80,81","circle,triangle,square,diamond,hexagon","B","D","A","80","common","training","1","true","1","categorize-html","4","65443","0.0-4.0-0.0","23207","20224522","none"
"1899","false","triangle,diamond,circle","32","80,81","circle,triangle,square,diamond,hexagon","B","D","A","80","common","training","2","true","1","categorize-html","6","68349","0.0-4.0-2.0","23207","20224522","none"
"2223","false","circle,diamond,triangle","32","80,81","circle,triangle,square,diamond,hexagon","A","D","B","80","common","training","3","true","1","categorize-html","8","71577","0.0-4.0-4.0","23207","20224522","none"
"2509","false","circle,triangle,diamond","32","80,81","circle,triangle,square,diamond,hexagon","A","B","D","80","common","training","4","true","1","categorize-html","10","75088","0.0-4.0-6.0","23207","20224522","none"
"3598.0000000000146","false","square,circle,hexagon","32","80,81","circle,triangle,square,diamond,hexagon","C","A","E","81","rare","training","5","true","1","categorize-html","12","79689","0.0-4.0-8.0","23207","20224522","none"
"2372.9999999999854","false","circle,hexagon,square","32","80,81","circle,triangle,square,diamond,hexagon","A","E","C","81","rare","training","6","true","1","categorize-html","14","83064","0.0-4.0-10.0","23207","20224522","none"
"521.9999999999854","false","circle,diamond,triangle","32","80,81","circle,triangle,square,diamond,hexagon","A","D","B","80","common","training","7","true","1","categorize-html","16","84588","0.0-4.0-12.0","23207","20224522","none"
"2193","false","hexagon,circle,square","32","80,81","circle,triangle,square,diamond,hexagon","E","A","C","81","rare","training","8","true","1","categorize-html","18","87782","0.0-4.0-14.0","23207","20224522","none"
"2005","false","diamond,circle,triangle","32","80,81","circle,triangle,square,diamond,hexagon","D","A","B","80","common","training","9","true","1","categorize-html","20","90789","0.0-4.0-16.0","23207","20224522","none"
"1950.9999999999854","false","diamond,triangle,circle","32","80,81","circle,triangle,square,diamond,hexagon","D","B","A","80","common","training","10","true","1","categorize-html","22","93745","0.0-4.0-18.0","23207","20224522","none"
"2674","false","triangle,circle,diamond","32","80,81","circle,triangle,square,diamond,hexagon","B","A","D","80","common","training","11","true","1","categorize-html","24","97423","0.0-4.0-20.0","23207","20224522","none"
"261","false","circle,triangle,diamond","32","80,81","circle,triangle,square,diamond,hexagon","A","B","D","80","common","training","12","true","1","categorize-html","26","98689","0.0-4.0-22.0","23207","20224522","none"
"3267.0000000000146","false","square,hexagon,circle","32","80,81","circle,triangle,square,diamond,hexagon","C","E","A","81","rare","training","13","true","1","categorize-html","28","102961","0.0-4.0-24.0","23207","20224522","none"
"4718","false","diamond,circle,triangle","32","80,81","circle,triangle,square,diamond,hexagon","D","A","B","80","common","training","14","true","1","categorize-html","30","108687","0.0-4.0-26.0","23207","20224522","none"
"2938","false","diamond,triangle,circle","32","80,81","circle,triangle,square,diamond,hexagon","D","B","A","80","common","training","15","true","1","categorize-html","32","112631","0.0-4.0-28.0","23207","20224522","none"
"3279","false","diamond,circle,triangle","32","80,81","circle,triangle,square,diamond,hexagon","D","A","B","80","common","training","16","true","1","categorize-html","34","116915","0.0-4.0-30.0","23207","20224522","none"
"null","false","diamond,triangle,circle","null","80,81","circle,triangle,square,diamond,hexagon","D","B","A","80","common","training","17","true","1","categorize-html","36","122918","0.0-4.0-32.0","23207","20224522","none"
"3066.9999999999854","false","circle,diamond,triangle","32","80,81","circle,triangle,square,diamond,hexagon","A","D","B","80","common","training","18","true","1","categorize-html","38","126989","0.0-4.0-34.0","23207","20224522","none"
"3496.9999999999854","false","triangle,diamond,circle","32","80,81","circle,triangle,square,diamond,hexagon","B","D","A","80","common","training","19","true","1","categorize-html","40","131490","0.0-4.0-36.0","23207","20224522","none"
"3186","false","hexagon,square,circle","32","80,81","circle,triangle,square,diamond,hexagon","E","C","A","81","rare","training","20","true","1","categorize-html","42","135682","0.0-4.0-38.0","23207","20224522","none"
"2809","false","triangle,circle,diamond","32","80,81","circle,triangle,square,diamond,hexagon","B","A","D","80","common","training","21","true","1","categorize-html","44","139496","0.0-4.0-40.0","23207","20224522","none"
"2630.000000000029","false","circle,square,hexagon","32","80,81","circle,triangle,square,diamond,hexagon","A","C","E","81","rare","training","22","true","1","categorize-html","46","143131","0.0-4.0-42.0","23207","20224522","none"
"2563","false","circle,triangle,diamond","32","80,81","circle,triangle,square,diamond,hexagon","A","B","D","80","common","training","23","true","1","categorize-html","48","146701","0.0-4.0-44.0","23207","20224522","none"
"2844","false","triangle,circle,diamond","32","80,81","circle,triangle,square,diamond,hexagon","B","A","D","80","common","training","24","true","1","categorize-html","50","150550","0.0-4.0-46.0","23207","20224522","none"
"5916","false","square","80","80,81","circle,triangle,square,diamond,hexagon","C","","","","","test","1","true","1","categorize-html","54","197140","0.0-6.0-0.0","23207","20224522","common"
"7147","false","triangle,square","81","80,81","circle,triangle,square,diamond,hexagon","B","C","","","","test","2","true","1","categorize-html","56","205794","0.0-6.0-2.0","23207","20224522","rare"
"3261","false","triangle,circle","80","80,81","circle,triangle,square,diamond,hexagon","B","A","","","","test","3","true","1","categorize-html","58","210559","0.0-6.0-4.0","23207","20224522","common"
"3917","false","square,triangle","81","80,81","circle,triangle,square,diamond,hexagon","C","B","","","","test","4","true","1","categorize-html","60","215985","0.0-6.0-6.0","23207","20224522","rare"
"2563","false","circle,square","81","80,81","circle,triangle,square,diamond,hexagon","A","C","","","","test","5","true","1","categorize-html","62","220055","0.0-6.0-8.0","23207","20224522","rare"
"6342.000000000029","false","triangle","81","80,81","circle,triangle,square,diamond,hexagon","B","","","","","test","6","true","1","categorize-html","64","227903","0.0-6.0-10.0","23207","20224522","rare"
"3402","false","square","81","80,81","circle,triangle,square,diamond,hexagon","C","","","","","test","7","true","1","categorize-html","66","232810","0.0-6.0-12.0","23207","20224522","rare"
"3303","false","triangle","80","80,81","circle,triangle,square,diamond,hexagon","B","","","","","test","8","true","1","categorize-html","68","237617","0.0-6.0-14.0","23207","20224522","common"
"1283","false","circle","80","80,81","circle,triangle,square,diamond,hexagon","A","","","","","test","9","true","1","categorize-html","70","240406","0.0-6.0-16.0","23207","20224522","common"
"807","false","circle","80","80,81","circle,triangle,square,diamond,hexagon","A","","","","","test","10","true","1","categorize-html","72","242718","0.0-6.0-18.0","23207","20224522","common"
"5041","false","square,circle","80","80,81","circle,triangle,square,diamond,hexagon","C","A","","","","test","11","true","1","categorize-html","74","249263","0.0-6.0-20.0","23207","20224522","common"
"1791","false","circle,triangle","80","80,81","circle,triangle,square,diamond,hexagon","A","B","","","","test","12","true","1","categorize-html","76","252558","0.0-6.0-22.0","23207","20224522","common"
"1412","false","circle","80","80,81","circle,triangle,square,diamond,hexagon","A","","","","","test","13","true","1","categorize-html","78","255478","0.0-6.0-24.0","23207","20224522","common"
"1951","false","circle,square","80","80,81","circle,triangle,square,diamond,hexagon","A","C","","","","test","14","true","1","categorize-html","80","258936","0.0-6.0-26.0","23207","20224522","common"
"1577","false","triangle,circle","81","80,81","circle,triangle,square,diamond,hexagon","B","A","","","","test","15","true","1","categorize-html","82","262021","0.0-6.0-28.0","23207","20224522","rare"
"2785","false","square","80","80,81","circle,triangle,square,diamond,hexagon","C","","","","","test","16","true","1","categorize-html","84","266311","0.0-6.0-30.0","23207","20224522","common"
"1101","false","circle","80","80,81","circle,triangle,square,diamond,hexagon","A","","","","","test","17","true","1","categorize-html","86","268915","0.0-6.0-32.0","23207","20224522","common"
"1767.0000000000582","false","triangle","81","80,81","circle,triangle,square,diamond,hexagon","B","","","","","test","18","true","1","categorize-html","88","272190","0.0-6.0-34.0","23207","20224522","rare"
"695","false","square","80","80,81","circle,triangle,square,diamond,hexagon","C","","","","","test","19","true","1","categorize-html","90","274389","0.0-6.0-36.0","23207","20224522","common"
"3514","false","triangle,square","80","80,81","circle,triangle,square,diamond,hexagon","B","C","","","","test","20","true","1","categorize-html","92","279411","0.0-6.0-38.0","23207","20224522","common"
"894","false","triangle","80","80,81","circle,triangle,square,diamond,hexagon","B","","","","","test","21","true","1","categorize-html","94","281809","0.0-6.0-40.0","23207","20224522","common"
"2668","false","square,triangle","80","80,81","circle,triangle,square,diamond,hexagon","C","B","","","","test","22","true","1","categorize-html","96","285983","0.0-6.0-42.0","23207","20224522","common"
"1331","false","square,circle","81","80,81","circle,triangle,square,diamond,hexagon","C","A","","","","test","23","true","1","categorize-html","98","288820","0.0-6.0-44.0","23207","20224522","rare"
"1862","false","circle,triangle","80","80,81","circle,triangle,square,diamond,hexagon","A","B","","","","test","24","true","1","categorize-html","100","292188","0.0-6.0-46.0","23207","20224522","common"
"3003","false","square","80","80,81","circle,triangle,square,diamond,hexagon","C","","","","","test","25","true","1","categorize-html","103","305922","0.0-6.0-49.0","23207","20224522","common"
"2738","false","circle,square","81","80,81","circle,triangle,square,diamond,hexagon","A","C","","","","test","26","true","1","categorize-html","105","310163","0.0-6.0-51.0","23207","20224522","rare"
"949","false","circle,triangle","80","80,81","circle,triangle,square,diamond,hexagon","A","B","","","","test","27","true","1","categorize-html","107","312617","0.0-6.0-53.0","23207","20224522","common"
"2471","false","circle","80","80,81","circle,triangle,square,diamond,hexagon","A","","","","","test","28","true","1","categorize-html","109","316596","0.0-6.0-55.0","23207","20224522","common"
"1615","false","square,circle","81","80,81","circle,triangle,square,diamond,hexagon","C","A","","","","test","29","true","1","categorize-html","111","319718","0.0-6.0-57.0","23207","20224522","rare"
"3344.999999999942","false","triangle,square","81","80,81","circle,triangle,square,diamond,hexagon","B","C","","","","test","30","true","1","categorize-html","113","324569","0.0-6.0-59.0","23207","20224522","rare"
"2367","false","triangle","80","80,81","circle,triangle,square,diamond,hexagon","B","","","","","test","31","true","1","categorize-html","115","328443","0.0-6.0-61.0","23207","20224522","common"
"2547","false","square","81","80,81","circle,triangle,square,diamond,hexagon","C","","","","","test","32","true","1","categorize-html","117","332495","0.0-6.0-63.0","23207","20224522","rare"
"2048.999999999942","false","circle","80","80,81","circle,triangle,square,diamond,hexagon","A","","","","","test","33","true","1","categorize-html","119","336053","0.0-6.0-65.0","23207","20224522","common"
"1814.0000000000582","false","triangle","81","80,81","circle,triangle,square,diamond,hexagon","B","","","","","test","34","true","1","categorize-html","121","339372","0.0-6.0-67.0","23207","20224522","rare"
"1997","false","triangle,circle","80","80,81","circle,triangle,square,diamond,hexagon","B","A","","","","test","35","true","1","categorize-html","123","342873","0.0-6.0-69.0","23207","20224522","common"
"1233","false","square,triangle","81","80,81","circle,triangle,square,diamond,hexagon","C","B","","","","test","36","true","1","categorize-html","125","345614","0.0-6.0-71.0","23207","20224522","rare"
"977","false","triangle,circle","80","80,81","circle,triangle,square,diamond,hexagon","B","A","","","","test","37","true","1","categorize-html","127","348097","0.0-6.0-73.0","23207","20224522","common"
"1351","false","square,circle","81","80,81","circle,triangle,square,diamond,hexagon","C","A","","","","test","38","true","1","categorize-html","129","350952","0.0-6.0-75.0","23207","20224522","rare"
"1129","false","circle","80","80,81","circle,triangle,square,diamond,hexagon","A","","","","","test","39","true","1","categorize-html","131","353587","0.0-6.0-77.0","23207","20224522","common"
"2488","false","square","81","80,81","circle,triangle,square,diamond,hexagon","C","","","","","test","40","true","1","categorize-html","133","357578","0.0-6.0-79.0","23207","20224522","rare"
"717","false","square","81","80,81","circle,triangle,square,diamond,hexagon","C","","","","","test","41","true","1","categorize-html","135","359802","0.0-6.0-81.0","23207","20224522","rare"
"599.0000000000582","false","circle","80","80,81","circle,triangle,square,diamond,hexagon","A","","","","","test","42","true","1","categorize-html","137","361907","0.0-6.0-83.0","23207","20224522","common"
"1214","false","circle,triangle","81","80,81","circle,triangle,square,diamond,hexagon","A","B","","","","test","43","true","1","categorize-html","139","364625","0.0-6.0-85.0","23207","20224522","rare"
"1508.9999999999418","false","square,triangle","81","80,81","circle,triangle,square,diamond,hexagon","C","B","","","","test","44","true","1","categorize-html","141","367641","0.0-6.0-87.0","23207","20224522","rare"
"1598.9999999999418","false","triangle","80","80,81","circle,triangle,square,diamond,hexagon","B","","","","","test","45","true","1","categorize-html","143","370744","0.0-6.0-89.0","23207","20224522","common"
"1903","false","circle,square","81","80,81","circle,triangle,square,diamond,hexagon","A","C","","","","test","46","true","1","categorize-html","145","374152","0.0-6.0-91.0","23207","20224522","rare"
"1903.0000000000582","false","triangle","81","80,81","circle,triangle,square,diamond,hexagon","B","","","","","test","47","true","1","categorize-html","147","377559","0.0-6.0-93.0","23207","20224522","rare"
"1400","false","triangle,square","81","80,81","circle,triangle,square,diamond,hexagon","B","C","","","","test","48","true","1","categorize-html","149","380465","0.0-6.0-95.0","23207","20224522","rare"
"1987","false","circle,triangle","80","80,81","circle,triangle,square,diamond,hexagon","A","B","","","","test","49","true","1","categorize-html","152","389814","0.0-6.0-98.0","23207","20224522","common"
"1585.9999999999418","false","triangle","80","80,81","circle,triangle,square,diamond,hexagon","B","","","","","test","50","true","1","categorize-html","154","392907","0.0-6.0-100.0","23207","20224522","common"
"1588","false","circle","80","80,81","circle,triangle,square,diamond,hexagon","A","","","","","test","51","true","1","categorize-html","156","396001","0.0-6.0-102.0","23207","20224522","common"
"1166","false","triangle,circle","80","80,81","circle,triangle,square,diamond,hexagon","B","A","","","","test","52","true","1","categorize-html","158","398677","0.0-6.0-104.0","23207","20224522","common"
"854.0000000000582","false","triangle","81","80,81","circle,triangle,square,diamond,hexagon","B","","","","","test","53","true","1","categorize-html","160","401037","0.0-6.0-106.0","23207","20224522","rare"
"1542","false","square,triangle","81","80,81","circle,triangle,square,diamond,hexagon","C","B","","","","test","54","true","1","categorize-html","162","404086","0.0-6.0-108.0","23207","20224522","rare"
"786","false","square,circle","80","80,81","circle,triangle,square,diamond,hexagon","C","A","","","","test","55","true","1","categorize-html","164","406381","0.0-6.0-110.0","23207","20224522","common"
"2374","false","triangle,square","81","80,81","circle,triangle,square,diamond,hexagon","B","C","","","","test","56","true","1","categorize-html","166","410259","0.0-6.0-112.0","23207","20224522","rare"
"3716","false","square","81","80,81","circle,triangle,square,diamond,hexagon","C","","","","","test","57","true","1","categorize-html","168","415480","0.0-6.0-114.0","23207","20224522","rare"
"973.0000000000582","false","square","81","80,81","circle,triangle,square,diamond,hexagon","C","","","","","test","58","true","1","categorize-html","170","417960","0.0-6.0-116.0","23207","20224522","rare"
"1931","false","circle,square","81","80,81","circle,triangle,square,diamond,hexagon","A","C","","","","test","59","true","1","categorize-html","172","421394","0.0-6.0-118.0","23207","20224522","rare"
"1005","false","circle","80","80,81","circle,triangle,square,diamond,hexagon","A","","","","","test","60","true","1","categorize-html","174","423906","0.0-6.0-120.0","23207","20224522","common"
"4262","false","triangle","81","80,81","circle,triangle,square,diamond,hexagon","B","","","","","test","61","true","1","categorize-html","176","429675","0.0-6.0-122.0","23207","20224522","rare"
"2686","false","triangle","81","80,81","circle,triangle,square,diamond,hexagon","B","","","","","test","62","true","1","categorize-html","178","433867","0.0-6.0-124.0","23207","20224522","rare"
"738","false","circle,square","80","80,81","circle,triangle,square,diamond,hexagon","A","C","","","","test","63","true","1","categorize-html","180","436110","0.0-6.0-126.0","23207","20224522","common"
"1396.0000000000582","false","square","81","80,81","circle,triangle,square,diamond,hexagon","C","","","","","test","64","true","1","categorize-html","182","439013","0.0-6.0-128.0","23207","20224522","rare"
"2650.999999999942","false","circle","80","80,81","circle,triangle,square,diamond,hexagon","A","","","","","test","65","true","1","categorize-html","184","443168","0.0-6.0-130.0","23207","20224522","common"
"1168","false","circle,triangle","80","80,81","circle,triangle,square,diamond,hexagon","A","B","","","","test","66","true","1","categorize-html","186","445843","0.0-6.0-132.0","23207","20224522","common"
"1599","false","circle","80","80,81","circle,triangle,square,diamond,hexagon","A","","","","","test","67","true","1","categorize-html","188","448948","0.0-6.0-134.0","23207","20224522","common"
"1893","false","square","81","80,81","circle,triangle,square,diamond,hexagon","C","","","","","test","68","true","1","categorize-html","190","452348","0.0-6.0-136.0","23207","20224522","rare"
"3417","false","triangle,circle","81","80,81","circle,triangle,square,diamond,hexagon","B","A","","","","test","69","true","1","categorize-html","192","457268","0.0-6.0-138.0","23207","20224522","rare"
"1491","false","square,circle","81","80,81","circle,triangle,square,diamond,hexagon","C","A","","","","test","70","true","1","categorize-html","194","460269","0.0-6.0-140.0","23207","20224522","rare"
"1555","false","square,triangle","81","80,81","circle,triangle,square,diamond,hexagon","C","B","","","","test","71","true","1","categorize-html","196","463331","0.0-6.0-142.0","23207","20224522","rare"
"1378","false","triangle,square","80","80,81","circle,triangle,square,diamond,hexagon","B","C","","","","test","72","true","1","categorize-html","198","466217","0.0-6.0-144.0","23207","20224522","common"
"2727","false","square","81","80,81","circle,triangle,square,diamond,hexagon","C","","","","","test","73","true","1","categorize-html","201","480374","0.0-6.0-147.0","23207","20224522","rare"
"1504.0000000000582","false","square,circle","81","80,81","circle,triangle,square,diamond,hexagon","C","A","","","","test","74","true","1","categorize-html","203","483383","0.0-6.0-149.0","23207","20224522","rare"
"698.9999999999418","false","square","81","80,81","circle,triangle,square,diamond,hexagon","C","","","","","test","75","true","1","categorize-html","205","485590","0.0-6.0-151.0","23207","20224522","rare"
"1758","false","triangle","81","80,81","circle,triangle,square,diamond,hexagon","B","","","","","test","76","true","1","categorize-html","207","488856","0.0-6.0-153.0","23207","20224522","rare"
"1013","false","circle,triangle","80","80,81","circle,triangle,square,diamond,hexagon","A","B","","","","test","77","true","1","categorize-html","209","491375","0.0-6.0-155.0","23207","20224522","common"
"1050","false","triangle","81","80,81","circle,triangle,square,diamond,hexagon","B","","","","","test","78","true","1","categorize-html","211","493933","0.0-6.0-157.0","23207","20224522","rare"
"4145.999999999942","false","triangle,square","81","80,81","circle,triangle,square,diamond,hexagon","B","C","","","","test","79","true","1","categorize-html","213","499586","0.0-6.0-159.0","23207","20224522","rare"
"837.9999999999418","false","circle","80","80,81","circle,triangle,square,diamond,hexagon","A","","","","","test","80","true","1","categorize-html","215","501930","0.0-6.0-161.0","23207","20224522","common"
"1280","false","square,triangle","81","80,81","circle,triangle,square,diamond,hexagon","C","B","","","","test","81","true","1","categorize-html","217","504717","0.0-6.0-163.0","23207","20224522","rare"
"2325","false","circle,square","81","80,81","circle,triangle,square,diamond,hexagon","A","C","","","","test","82","true","1","categorize-html","219","508548","0.0-6.0-165.0","23207","20224522","rare"
"1474.9999999999418","false","triangle,circle","80","80,81","circle,triangle,square,diamond,hexagon","B","A","","","","test","83","true","1","categorize-html","221","511526","0.0-6.0-167.0","23207","20224522","common"
"1379.9999999999418","false","circle","80","80,81","circle,triangle,square,diamond,hexagon","A","","","","","test","84","true","1","categorize-html","223","514414","0.0-6.0-169.0","23207","20224522","common"
"1191.0000000000582","false","triangle,square","81","80,81","circle,triangle,square,diamond,hexagon","B","C","","","","test","85","true","1","categorize-html","225","517109","0.0-6.0-171.0","23207","20224522","rare"
"1434.9999999999418","false","circle,square","81","80,81","circle,triangle,square,diamond,hexagon","A","C","","","","test","86","true","1","categorize-html","227","520050","0.0-6.0-173.0","23207","20224522","rare"
"1117","false","triangle,circle","80","80,81","circle,triangle,square,diamond,hexagon","B","A","","","","test","87","true","1","categorize-html","229","522674","0.0-6.0-175.0","23207","20224522","common"
"594","false","circle","80","80,81","circle,triangle,square,diamond,hexagon","A","","","","","test","88","true","1","categorize-html","231","524772","0.0-6.0-177.0","23207","20224522","common"
"932","false","triangle","81","80,81","circle,triangle,square,diamond,hexagon","B","","","","","test","89","true","1","categorize-html","233","527209","0.0-6.0-179.0","23207","20224522","rare"
"2366.0000000001164","false","square","81","80,81","circle,triangle,square,diamond,hexagon","C","","","","","test","90","true","1","categorize-html","235","531080","0.0-6.0-181.0","23207","20224522","rare"
"1262","false","square","81","80,81","circle,triangle,square,diamond,hexagon","C","","","","","test","91","true","1","categorize-html","237","533850","0.0-6.0-183.0","23207","20224522","rare"
"1587","false","circle,triangle","80","80,81","circle,triangle,square,diamond,hexagon","A","B","","","","test","92","true","1","categorize-html","239","536944","0.0-6.0-185.0","23207","20224522","common"
"1491","false","triangle","81","80,81","circle,triangle,square,diamond,hexagon","B","","","","","test","93","true","1","categorize-html","241","539938","0.0-6.0-187.0","23207","20224522","rare"
"1087","false","circle","80","80,81","circle,triangle,square,diamond,hexagon","A","","","","","test","94","true","1","categorize-html","243","542529","0.0-6.0-189.0","23207","20224522","common"
"2075","false","square,circle","80","80,81","circle,triangle,square,diamond,hexagon","C","A","","","","test","95","true","1","categorize-html","245","546109","0.0-6.0-191.0","23207","20224522","common"
"1384","false","square,triangle","81","80,81","circle,triangle,square,diamond,hexagon","C","B","","","","test","96","true","1","categorize-html","247","548996","0.0-6.0-193.0","23207","20224522","rare"
"3169","false","square","81","80,81","circle,triangle,square,diamond,hexagon","C","","","","","test","97","true","1","categorize-html","250","558941","0.0-6.0-196.0","23207","20224522","rare"
"1330","false","triangle","81","80,81","circle,triangle,square,diamond,hexagon","B","","","","","test","98","true","1","categorize-html","252","561777","0.0-6.0-198.0","23207","20224522","rare"
"1597","false","circle","80","80,81","circle,triangle,square,diamond,hexagon","A","","","","","test","99","true","1","categorize-html","254","564878","0.0-6.0-200.0","23207","20224522","common"
"1612","false","triangle","81","80,81","circle,triangle,square,diamond,hexagon","B","","","","","test","100","true","1","categorize-html","256","567995","0.0-6.0-202.0","23207","20224522","rare"
"919.9999999998836","false","triangle,circle","80","80,81","circle,triangle,square,diamond,hexagon","B","A","","","","test","101","true","1","categorize-html","258","570420","0.0-6.0-204.0","23207","20224522","common"
"1374","false","triangle,square","80","80,81","circle,triangle,square,diamond,hexagon","B","C","","","","test","102","true","1","categorize-html","260","573300","0.0-6.0-206.0","23207","20224522","common"
"1088","false","square,triangle","81","80,81","circle,triangle,square,diamond,hexagon","C","B","","","","test","103","true","1","categorize-html","262","575895","0.0-6.0-208.0","23207","20224522","rare"
"641","false","circle","80","80,81","circle,triangle,square,diamond,hexagon","A","","","","","test","104","true","1","categorize-html","264","578041","0.0-6.0-210.0","23207","20224522","common"
"1613.0000000001164","false","circle,square","81","80,81","circle,triangle,square,diamond,hexagon","A","C","","","","test","105","true","1","categorize-html","266","581160","0.0-6.0-212.0","23207","20224522","rare"
"886","false","circle,triangle","80","80,81","circle,triangle,square,diamond,hexagon","A","B","","","","test","106","true","1","categorize-html","268","583551","0.0-6.0-214.0","23207","20224522","common"
"918","false","square","81","80,81","circle,triangle,square,diamond,hexagon","C","","","","","test","107","true","1","categorize-html","270","585975","0.0-6.0-216.0","23207","20224522","rare"
"1508.9999999998836","false","square,circle","81","80,81","circle,triangle,square,diamond,hexagon","C","A","","","","test","108","true","1","categorize-html","272","588990","0.0-6.0-218.0","23207","20224522","rare"
"2397","false","triangle,square","80","80,81","circle,triangle,square,diamond,hexagon","B","C","","","","test","109","true","1","categorize-html","274","592894","0.0-6.0-220.0","23207","20224522","common"
"1542","false","square,triangle","80","80,81","circle,triangle,square,diamond,hexagon","C","B","","","","test","110","true","1","categorize-html","276","595942","0.0-6.0-222.0","23207","20224522","common"
"4837","false","circle,square","81","80,81","circle,triangle,square,diamond,hexagon","A","C","","","","test","111","true","1","categorize-html","278","602287","0.0-6.0-224.0","23207","20224522","rare"
"826","false","square,circle","81","80,81","circle,triangle,square,diamond,hexagon","C","A","","","","test","112","true","1","categorize-html","280","604617","0.0-6.0-226.0","23207","20224522","rare"
"1068","false","circle,triangle","80","80,81","circle,triangle,square,diamond,hexagon","A","B","","","","test","113","true","1","categorize-html","282","607191","0.0-6.0-228.0","23207","20224522","common"
"1413","false","triangle","81","80,81","circle,triangle,square,diamond,hexagon","B","","","","","test","114","true","1","categorize-html","284","610111","0.0-6.0-230.0","23207","20224522","rare"
"951","false","square","81","80,81","circle,triangle,square,diamond,hexagon","C","","","","","test","115","true","1","categorize-html","286","612572","0.0-6.0-232.0","23207","20224522","rare"
"1842","false","triangle","81","80,81","circle,triangle,square,diamond,hexagon","B","","","","","test","116","true","1","categorize-html","288","615921","0.0-6.0-234.0","23207","20224522","rare"
"2647.0000000001164","false","square","81","80,81","circle,triangle,square,diamond,hexagon","C","","","","","test","117","true","1","categorize-html","290","620077","0.0-6.0-236.0","23207","20224522","rare"
"727","false","triangle,circle","80","80,81","circle,triangle,square,diamond,hexagon","B","A","","","","test","118","true","1","categorize-html","292","622313","0.0-6.0-238.0","23207","20224522","common"
"1069","false","circle","81","80,81","circle,triangle,square,diamond,hexagon","A","","","","","test","119","true","1","categorize-html","294","624885","0.0-6.0-240.0","23207","20224522","rare"
"634","false","circle","80","80,81","circle,triangle,square,diamond,hexagon","A","","","","","test","120","true","1","categorize-html","296","627026","0.0-6.0-242.0","23207","20224522","common"
