"rt","correct","stimulus","key_press","keys","symptoms_shuffle","symptom1","symptom2","symptom3","key","category","phase","trial","include","block","trial_type","trial_index","time_elapsed","internal_node_id","ppt","session","abresp"
"null","false","square,triangle,diamond","null","81,80","diamond,square,hexagon,triangle,circle","B","D","A","81","common","training","1","true","1","categorize-html","4","36447","0.0-4.0-0.0","23477","20224418","none"
"2357.399999976158","false","hexagon,circle,diamond","32","81,80","diamond,square,hexagon,triangle,circle","C","E","A","80","rare","training","2","true","1","categorize-html","6","39831","0.0-4.0-2.0","23477","20224418","none"
"1471.1000000238419","false","triangle,square,diamond","32","81,80","diamond,square,hexagon,triangle,circle","D","B","A","81","common","training","3","true","1","categorize-html","8","42321","0.0-4.0-4.0","23477","20224418","none"
"728.1999999284744","false","square,triangle,diamond","32","81,80","diamond,square,hexagon,triangle,circle","B","D","A","81","common","training","4","true","1","categorize-html","10","44075","0.0-4.0-6.0","23477","20224418","none"
"961.0999999046326","false","diamond,triangle,square","32","81,80","diamond,square,hexagon,triangle,circle","A","D","B","81","common","training","5","true","1","categorize-html","12","46054","0.0-4.0-8.0","23477","20224418","none"
"838.4000000953674","false","triangle,diamond,square","32","81,80","diamond,square,hexagon,triangle,circle","D","A","B","81","common","training","6","true","1","categorize-html","14","47918","0.0-4.0-10.0","23477","20224418","none"
"822.2999999523163","false","circle,diamond,hexagon","32","81,80","diamond,square,hexagon,triangle,circle","E","A","C","80","rare","training","7","true","1","categorize-html","16","49747","0.0-4.0-12.0","23477","20224418","none"
"724.6000000238419","false","diamond,circle,hexagon","32","81,80","diamond,square,hexagon,triangle,circle","A","E","C","80","rare","training","8","true","1","categorize-html","18","51496","0.0-4.0-14.0","23477","20224418","none"
"852.6000000238419","false","triangle,square,diamond","32","81,80","diamond,square,hexagon,triangle,circle","D","B","A","81","common","training","9","true","1","categorize-html","20","53387","0.0-4.0-16.0","23477","20224418","none"
"729.6999999284744","false","diamond,triangle,square","32","81,80","diamond,square,hexagon,triangle,circle","A","D","B","81","common","training","10","true","1","categorize-html","22","55143","0.0-4.0-18.0","23477","20224418","none"
"754.8000000715256","false","hexagon,diamond,circle","32","81,80","diamond,square,hexagon,triangle,circle","C","A","E","80","rare","training","11","true","1","categorize-html","24","56922","0.0-4.0-20.0","23477","20224418","none"
"490.2999999523163","false","diamond,square,triangle","32","81,80","diamond,square,hexagon,triangle,circle","A","B","D","81","common","training","12","true","1","categorize-html","26","58434","0.0-4.0-22.0","23477","20224418","none"
"431.39999997615814","false","triangle,diamond,square","32","81,80","diamond,square,hexagon,triangle,circle","D","A","B","81","common","training","13","true","1","categorize-html","28","59890","0.0-4.0-24.0","23477","20224418","none"
"381.10000002384186","false","diamond,square,triangle","32","81,80","diamond,square,hexagon,triangle,circle","A","B","D","81","common","training","14","true","1","categorize-html","30","61298","0.0-4.0-26.0","23477","20224418","none"
"670.8000000715256","false","diamond,hexagon,circle","32","81,80","diamond,square,hexagon,triangle,circle","A","C","E","80","rare","training","15","true","1","categorize-html","32","62977","0.0-4.0-28.0","23477","20224418","none"
"427.3000000715256","false","circle,hexagon,diamond","32","81,80","diamond,square,hexagon,triangle,circle","E","C","A","80","rare","training","16","true","1","categorize-html","34","64421","0.0-4.0-30.0","23477","20224418","none"
"797","false","square,diamond,triangle","32","81,80","diamond,square,hexagon,triangle,circle","B","A","D","81","common","training","17","true","1","categorize-html","36","66231","0.0-4.0-32.0","23477","20224418","none"
"335.5","false","triangle,diamond,square","32","81,80","diamond,square,hexagon,triangle,circle","D","A","B","81","common","training","18","true","1","categorize-html","38","67585","0.0-4.0-34.0","23477","20224418","none"
"414","false","square,diamond,triangle","32","81,80","diamond,square,hexagon,triangle,circle","B","A","D","81","common","training","19","true","1","categorize-html","40","69019","0.0-4.0-36.0","23477","20224418","none"
"295","false","square,diamond,triangle","32","81,80","diamond,square,hexagon,triangle,circle","B","A","D","81","common","training","20","true","1","categorize-html","42","70348","0.0-4.0-38.0","23477","20224418","none"
"352.59999990463257","false","diamond,square,triangle","32","81,80","diamond,square,hexagon,triangle,circle","A","B","D","81","common","training","21","true","1","categorize-html","44","71715","0.0-4.0-40.0","23477","20224418","none"
"314","false","square,triangle,diamond","32","81,80","diamond,square,hexagon,triangle,circle","B","D","A","81","common","training","22","true","1","categorize-html","46","73058","0.0-4.0-42.0","23477","20224418","none"
"347.40000009536743","false","triangle,square,diamond","32","81,80","diamond,square,hexagon,triangle,circle","D","B","A","81","common","training","23","true","1","categorize-html","48","74425","0.0-4.0-44.0","23477","20224418","none"
"304.5","false","diamond,triangle,square","32","81,80","diamond,square,hexagon,triangle,circle","A","D","B","81","common","training","24","true","1","categorize-html","50","75738","0.0-4.0-46.0","23477","20224418","none"
"1361.4000000953674","false","circle,diamond,hexagon","32","81,80","diamond,square,hexagon,triangle,circle","E","A","C","80","rare","training","25","true","2","categorize-html","53","86468","0.0-4.0-49.0","23477","20224418","none"
"692.9000000953674","false","triangle,diamond,square","32","81,80","diamond,square,hexagon,triangle,circle","D","A","B","81","common","training","26","true","2","categorize-html","55","88181","0.0-4.0-51.0","23477","20224418","none"
"881.2999999523163","false","diamond,square,triangle","32","81,80","diamond,square,hexagon,triangle,circle","A","B","D","81","common","training","27","true","2","categorize-html","57","90084","0.0-4.0-53.0","23477","20224418","none"
"673.3000000715256","false","circle,hexagon,diamond","32","81,80","diamond,square,hexagon,triangle,circle","E","C","A","80","rare","training","28","true","2","categorize-html","59","91777","0.0-4.0-55.0","23477","20224418","none"
"611","false","square,triangle,diamond","32","81,80","diamond,square,hexagon,triangle,circle","B","D","A","81","common","training","29","true","2","categorize-html","61","93403","0.0-4.0-57.0","23477","20224418","none"
"756.3999999761581","false","hexagon,diamond,circle","32","81,80","diamond,square,hexagon,triangle,circle","C","A","E","80","rare","training","30","true","2","categorize-html","63","95181","0.0-4.0-59.0","23477","20224418","none"
"650.1000000238419","false","triangle,square,diamond","32","81,80","diamond,square,hexagon,triangle,circle","D","B","A","81","common","training","31","true","2","categorize-html","65","96844","0.0-4.0-61.0","23477","20224418","none"
"527.6999999284744","false","diamond,square,triangle","32","81,80","diamond,square,hexagon,triangle,circle","A","B","D","81","common","training","32","true","2","categorize-html","67","98384","0.0-4.0-63.0","23477","20224418","none"
"402.2000000476837","false","square,diamond,triangle","32","81,80","diamond,square,hexagon,triangle,circle","B","A","D","81","common","training","33","true","2","categorize-html","69","99804","0.0-4.0-65.0","23477","20224418","none"
"393.1999999284744","false","diamond,hexagon,circle","32","81,80","diamond,square,hexagon,triangle,circle","A","C","E","80","rare","training","34","true","2","categorize-html","71","101224","0.0-4.0-67.0","23477","20224418","none"
"342.2999999523163","false","diamond,square,triangle","32","81,80","diamond,square,hexagon,triangle,circle","A","B","D","81","common","training","35","true","2","categorize-html","73","102598","0.0-4.0-69.0","23477","20224418","none"
"303.39999997615814","false","triangle,square,diamond","32","81,80","diamond,square,hexagon,triangle,circle","D","B","A","81","common","training","36","true","2","categorize-html","75","103923","0.0-4.0-71.0","23477","20224418","none"
"756.6999999284744","false","square,triangle,diamond","32","81,80","diamond,square,hexagon,triangle,circle","B","D","A","81","common","training","37","true","2","categorize-html","77","105712","0.0-4.0-73.0","23477","20224418","none"
"766.8999999761581","false","diamond,triangle,square","32","81,80","diamond,square,hexagon,triangle,circle","A","D","B","81","common","training","38","true","2","categorize-html","79","107493","0.0-4.0-75.0","23477","20224418","none"
"393.40000009536743","false","diamond,triangle,square","32","81,80","diamond,square,hexagon,triangle,circle","A","D","B","81","common","training","39","true","2","categorize-html","81","108908","0.0-4.0-77.0","23477","20224418","none"
"621.9000000953674","false","square,triangle,diamond","32","81,80","diamond,square,hexagon,triangle,circle","B","D","A","81","common","training","40","true","2","categorize-html","83","110539","0.0-4.0-79.0","23477","20224418","none"
"408","false","hexagon,circle,diamond","32","81,80","diamond,square,hexagon,triangle,circle","C","E","A","80","rare","training","41","true","2","categorize-html","85","111980","0.0-4.0-81.0","23477","20224418","none"
"389.40000009536743","false","square,diamond,triangle","32","81,80","diamond,square,hexagon,triangle,circle","B","A","D","81","common","training","42","true","2","categorize-html","87","113377","0.0-4.0-83.0","23477","20224418","none"
"303.89999997615814","false","triangle,diamond,square","32","81,80","diamond,square,hexagon,triangle,circle","D","A","B","81","common","training","43","true","2","categorize-html","89","114709","0.0-4.0-85.0","23477","20224418","none"
"371.60000002384186","false","triangle,square,diamond","32","81,80","diamond,square,hexagon,triangle,circle","D","B","A","81","common","training","44","true","2","categorize-html","91","116100","0.0-4.0-87.0","23477","20224418","none"
"286.8000000715256","false","diamond,triangle,square","32","81,80","diamond,square,hexagon,triangle,circle","A","D","B","81","common","training","45","true","2","categorize-html","93","117405","0.0-4.0-89.0","23477","20224418","none"
"287.5","false","square,diamond,triangle","32","81,80","diamond,square,hexagon,triangle,circle","B","A","D","81","common","training","46","true","2","categorize-html","95","118711","0.0-4.0-91.0","23477","20224418","none"
"236.5","false","triangle,diamond,square","32","81,80","diamond,square,hexagon,triangle,circle","D","A","B","81","common","training","47","true","2","categorize-html","97","119969","0.0-4.0-93.0","23477","20224418","none"
"2107.6999999284744","false","diamond,circle,hexagon","32","81,80","diamond,square,hexagon,triangle,circle","A","E","C","80","rare","training","48","true","2","categorize-html","99","123106","0.0-4.0-95.0","23477","20224418","none"
"3666.600000023842","false","diamond","80","81,80","diamond,square,hexagon,triangle,circle","A","","","","","test","1","true","1","categorize-html","103","375512","0.0-6.0-0.0","23477","20224418","rare"
"3346","false","square","80","81,80","diamond,square,hexagon,triangle,circle","B","","","","","test","2","true","1","categorize-html","105","380372","0.0-6.0-2.0","23477","20224418","rare"
"616.1000000238419","false","hexagon","80","81,80","diamond,square,hexagon,triangle,circle","C","","","","","test","3","true","1","categorize-html","107","382495","0.0-6.0-4.0","23477","20224418","rare"
"1693.3999999761581","false","diamond,square","81","81,80","diamond,square,hexagon,triangle,circle","A","B","","","","test","4","true","1","categorize-html","109","385716","0.0-6.0-6.0","23477","20224418","common"
"494.40000009536743","false","square,diamond","80","81,80","diamond,square,hexagon,triangle,circle","B","A","","","","test","5","true","1","categorize-html","111","387723","0.0-6.0-8.0","23477","20224418","rare"
"698","false","diamond,hexagon","81","81,80","diamond,square,hexagon,triangle,circle","A","C","","","","test","6","true","1","categorize-html","113","389955","0.0-6.0-10.0","23477","20224418","common"
"454.90000009536743","false","hexagon,diamond","81","81,80","diamond,square,hexagon,triangle,circle","C","A","","","","test","7","true","1","categorize-html","115","391924","0.0-6.0-12.0","23477","20224418","common"
"337.39999997615814","false","hexagon","81","81,80","diamond,square,hexagon,triangle,circle","C","","","","","test","8","true","1","categorize-html","117","393784","0.0-6.0-14.0","23477","20224418","common"
"264.7999999523163","false","diamond","81","81,80","diamond,square,hexagon,triangle,circle","A","","","","","test","9","true","1","categorize-html","119","395563","0.0-6.0-16.0","23477","20224418","common"
"227.90000009536743","false","hexagon,square","81","81,80","diamond,square,hexagon,triangle,circle","C","B","","","","test","10","true","1","categorize-html","121","397309","0.0-6.0-18.0","23477","20224418","common"
"1116.0999999046326","false","square,hexagon","80","81,80","diamond,square,hexagon,triangle,circle","B","C","","","","test","11","true","1","categorize-html","123","399953","0.0-6.0-20.0","23477","20224418","rare"
"414.2000000476837","false","square","81","81,80","diamond,square,hexagon,triangle,circle","B","","","","","test","12","true","1","categorize-html","125","401889","0.0-6.0-22.0","23477","20224418","common"
"986.7999999523163","false","square","81","81,80","diamond,square,hexagon,triangle,circle","B","","","","","test","13","true","1","categorize-html","127","404405","0.0-6.0-24.0","23477","20224418","common"
"670.6999999284744","false","diamond,square","81","81,80","diamond,square,hexagon,triangle,circle","A","B","","","","test","14","true","1","categorize-html","129","406606","0.0-6.0-26.0","23477","20224418","common"
"391.5","false","diamond","81","81,80","diamond,square,hexagon,triangle,circle","A","","","","","test","15","true","1","categorize-html","131","408513","0.0-6.0-28.0","23477","20224418","common"
"879.2000000476837","false","square,diamond","80","81,80","diamond,square,hexagon,triangle,circle","B","A","","","","test","16","true","1","categorize-html","133","410910","0.0-6.0-30.0","23477","20224418","rare"
"345.7000000476837","false","hexagon","80","81,80","diamond,square,hexagon,triangle,circle","C","","","","","test","17","true","1","categorize-html","135","412773","0.0-6.0-32.0","23477","20224418","rare"
"342.5","false","hexagon","80","81,80","diamond,square,hexagon,triangle,circle","C","","","","","test","18","true","1","categorize-html","137","414627","0.0-6.0-34.0","23477","20224418","rare"
"303","false","square","80","81,80","diamond,square,hexagon,triangle,circle","B","","","","","test","19","true","1","categorize-html","139","416442","0.0-6.0-36.0","23477","20224418","rare"
"313.2000000476837","false","hexagon,diamond","81","81,80","diamond,square,hexagon,triangle,circle","C","A","","","","test","20","true","1","categorize-html","141","418285","0.0-6.0-38.0","23477","20224418","common"
"332.2000000476837","false","diamond","81","81,80","diamond,square,hexagon,triangle,circle","A","","","","","test","21","true","1","categorize-html","143","420136","0.0-6.0-40.0","23477","20224418","common"
"252","false","hexagon,square","81","81,80","diamond,square,hexagon,triangle,circle","C","B","","","","test","22","true","1","categorize-html","145","421909","0.0-6.0-42.0","23477","20224418","common"
"199.69999992847443","false","square,hexagon","81","81,80","diamond,square,hexagon,triangle,circle","B","C","","","","test","23","true","1","categorize-html","147","423636","0.0-6.0-44.0","23477","20224418","common"
"264.3000000715256","false","diamond,hexagon","81","81,80","diamond,square,hexagon,triangle,circle","A","C","","","","test","24","true","1","categorize-html","149","425425","0.0-6.0-46.0","23477","20224418","common"
"1159.7999999523163","false","diamond,hexagon","80","81,80","diamond,square,hexagon,triangle,circle","A","C","","","","test","25","true","1","categorize-html","152","430938","0.0-6.0-49.0","23477","20224418","rare"
"2440.7000000476837","false","square","81","81,80","diamond,square,hexagon,triangle,circle","B","","","","","test","26","true","1","categorize-html","154","434894","0.0-6.0-51.0","23477","20224418","common"
"544.8999999761581","false","hexagon","80","81,80","diamond,square,hexagon,triangle,circle","C","","","","","test","27","true","1","categorize-html","156","436955","0.0-6.0-53.0","23477","20224418","rare"
"272.60000002384186","false","diamond,square","81","81,80","diamond,square,hexagon,triangle,circle","A","B","","","","test","28","true","1","categorize-html","158","438749","0.0-6.0-55.0","23477","20224418","common"
"227.39999997615814","false","square,hexagon","80","81,80","diamond,square,hexagon,triangle,circle","B","C","","","","test","29","true","1","categorize-html","160","440492","0.0-6.0-57.0","23477","20224418","rare"
"136.19999992847443","false","hexagon","80","81,80","diamond,square,hexagon,triangle,circle","C","","","","","test","30","true","1","categorize-html","162","442163","0.0-6.0-59.0","23477","20224418","rare"
"161.39999997615814","false","square","80","81,80","diamond,square,hexagon,triangle,circle","B","","","","","test","31","true","1","categorize-html","164","443848","0.0-6.0-61.0","23477","20224418","rare"
"305.89999997615814","false","square,diamond","80","81,80","diamond,square,hexagon,triangle,circle","B","A","","","","test","32","true","1","categorize-html","166","445674","0.0-6.0-63.0","23477","20224418","rare"
"291.7999999523163","false","diamond","80","81,80","diamond,square,hexagon,triangle,circle","A","","","","","test","33","true","1","categorize-html","168","447502","0.0-6.0-65.0","23477","20224418","rare"
"224.10000002384186","false","hexagon,square","80","81,80","diamond,square,hexagon,triangle,circle","C","B","","","","test","34","true","1","categorize-html","170","449250","0.0-6.0-67.0","23477","20224418","rare"
"462","false","hexagon,diamond","80","81,80","diamond,square,hexagon,triangle,circle","C","A","","","","test","35","true","1","categorize-html","172","451243","0.0-6.0-69.0","23477","20224418","rare"
"264.59999990463257","false","diamond","80","81,80","diamond,square,hexagon,triangle,circle","A","","","","","test","36","true","1","categorize-html","174","453038","0.0-6.0-71.0","23477","20224418","rare"
"332.39999997615814","false","hexagon","81","81,80","diamond,square,hexagon,triangle,circle","C","","","","","test","37","true","1","categorize-html","176","454899","0.0-6.0-73.0","23477","20224418","common"
"442.60000002384186","false","diamond","80","81,80","diamond,square,hexagon,triangle,circle","A","","","","","test","38","true","1","categorize-html","178","456863","0.0-6.0-75.0","23477","20224418","rare"
"490.39999997615814","false","diamond","80","81,80","diamond,square,hexagon,triangle,circle","A","","","","","test","39","true","1","categorize-html","180","458873","0.0-6.0-77.0","23477","20224418","rare"
"278.2999999523163","false","diamond,hexagon","81","81,80","diamond,square,hexagon,triangle,circle","A","C","","","","test","40","true","1","categorize-html","182","460665","0.0-6.0-79.0","23477","20224418","common"
"285.2999999523163","false","hexagon","81","81,80","diamond,square,hexagon,triangle,circle","C","","","","","test","41","true","1","categorize-html","184","462465","0.0-6.0-81.0","23477","20224418","common"
"294.7000000476837","false","square,diamond","81","81,80","diamond,square,hexagon,triangle,circle","B","A","","","","test","42","true","1","categorize-html","186","464292","0.0-6.0-83.0","23477","20224418","common"
"223.10000002384186","false","hexagon,square","81","81,80","diamond,square,hexagon,triangle,circle","C","B","","","","test","43","true","1","categorize-html","188","466025","0.0-6.0-85.0","23477","20224418","common"
"280.6999999284744","false","square","81","81,80","diamond,square,hexagon,triangle,circle","B","","","","","test","44","true","1","categorize-html","190","467821","0.0-6.0-87.0","23477","20224418","common"
"242.20000004768372","false","diamond,square","80","81,80","diamond,square,hexagon,triangle,circle","A","B","","","","test","45","true","1","categorize-html","192","469584","0.0-6.0-89.0","23477","20224418","rare"
"283.39999997615814","false","hexagon,diamond","80","81,80","diamond,square,hexagon,triangle,circle","C","A","","","","test","46","true","1","categorize-html","194","471377","0.0-6.0-91.0","23477","20224418","rare"
"379.7999999523163","false","square","80","81,80","diamond,square,hexagon,triangle,circle","B","","","","","test","47","true","1","categorize-html","196","473268","0.0-6.0-93.0","23477","20224418","rare"
"510.5","false","square,hexagon","80","81,80","diamond,square,hexagon,triangle,circle","B","C","","","","test","48","true","1","categorize-html","198","475302","0.0-6.0-95.0","23477","20224418","rare"
"1154.5","false","diamond","80","81,80","diamond,square,hexagon,triangle,circle","A","","","","","test","49","true","1","categorize-html","201","484774","0.0-6.0-98.0","23477","20224418","rare"
"766.6000000238419","false","hexagon,diamond","80","81,80","diamond,square,hexagon,triangle,circle","C","A","","","","test","50","true","1","categorize-html","203","487048","0.0-6.0-100.0","23477","20224418","rare"
"3276.5","false","hexagon,square","81","81,80","diamond,square,hexagon,triangle,circle","C","B","","","","test","51","true","1","categorize-html","205","491841","0.0-6.0-102.0","23477","20224418","common"
"848.8000000715256","false","hexagon","81","81,80","diamond,square,hexagon,triangle,circle","C","","","","","test","52","true","1","categorize-html","207","494206","0.0-6.0-104.0","23477","20224418","common"
"541","false","diamond,square","81","81,80","diamond,square,hexagon,triangle,circle","A","B","","","","test","53","true","1","categorize-html","209","496270","0.0-6.0-106.0","23477","20224418","common"
"636","false","square","81","81,80","diamond,square,hexagon,triangle,circle","B","","","","","test","54","true","1","categorize-html","211","498412","0.0-6.0-108.0","23477","20224418","common"
"346","false","diamond,hexagon","81","81,80","diamond,square,hexagon,triangle,circle","A","C","","","","test","55","true","1","categorize-html","213","500281","0.0-6.0-110.0","23477","20224418","common"
"1831.8000000715256","false","square,hexagon","81","81,80","diamond,square,hexagon,triangle,circle","B","C","","","","test","56","true","1","categorize-html","215","503637","0.0-6.0-112.0","23477","20224418","common"
"228.10000002384186","false","square,diamond","80","81,80","diamond,square,hexagon,triangle,circle","B","A","","","","test","57","true","1","categorize-html","217","505382","0.0-6.0-114.0","23477","20224418","rare"
"289.7000000476837","false","hexagon","80","81,80","diamond,square,hexagon,triangle,circle","C","","","","","test","58","true","1","categorize-html","219","507187","0.0-6.0-116.0","23477","20224418","rare"
"212.10000002384186","false","diamond","80","81,80","diamond,square,hexagon,triangle,circle","A","","","","","test","59","true","1","categorize-html","221","508914","0.0-6.0-118.0","23477","20224418","rare"
"253.29999995231628","false","square","80","81,80","diamond,square,hexagon,triangle,circle","B","","","","","test","60","true","1","categorize-html","223","510691","0.0-6.0-120.0","23477","20224418","rare"
"358","false","hexagon","80","81,80","diamond,square,hexagon,triangle,circle","C","","","","","test","61","true","1","categorize-html","225","512572","0.0-6.0-122.0","23477","20224418","rare"
"306.5","false","hexagon","80","81,80","diamond,square,hexagon,triangle,circle","C","","","","","test","62","true","1","categorize-html","227","514391","0.0-6.0-124.0","23477","20224418","rare"
"370.90000009536743","false","diamond,square","80","81,80","diamond,square,hexagon,triangle,circle","A","B","","","","test","63","true","1","categorize-html","229","516272","0.0-6.0-126.0","23477","20224418","rare"
"276.5","false","diamond","80","81,80","diamond,square,hexagon,triangle,circle","A","","","","","test","64","true","1","categorize-html","231","518058","0.0-6.0-128.0","23477","20224418","rare"
"329.89999997615814","false","square","80","81,80","diamond,square,hexagon,triangle,circle","B","","","","","test","65","true","1","categorize-html","233","519922","0.0-6.0-130.0","23477","20224418","rare"
"1023","false","hexagon,diamond","80","81,80","diamond,square,hexagon,triangle,circle","C","A","","","","test","66","true","1","categorize-html","235","522471","0.0-6.0-132.0","23477","20224418","rare"
"423.7999999523163","false","square","81","81,80","diamond,square,hexagon,triangle,circle","B","","","","","test","67","true","1","categorize-html","237","524412","0.0-6.0-134.0","23477","20224418","common"
"275.40000009536743","false","square,hexagon","80","81,80","diamond,square,hexagon,triangle,circle","B","C","","","","test","68","true","1","categorize-html","239","526206","0.0-6.0-136.0","23477","20224418","rare"
"445.7999999523163","false","hexagon,square","81","81,80","diamond,square,hexagon,triangle,circle","C","B","","","","test","69","true","1","categorize-html","241","528165","0.0-6.0-138.0","23477","20224418","common"
"296.40000009536743","false","diamond","81","81,80","diamond,square,hexagon,triangle,circle","A","","","","","test","70","true","1","categorize-html","243","529978","0.0-6.0-140.0","23477","20224418","common"
"89.69999992847443","false","square,diamond","81","81,80","diamond,square,hexagon,triangle,circle","B","A","","","","test","71","true","1","categorize-html","245","531596","0.0-6.0-142.0","23477","20224418","common"
"275.59999990463257","false","diamond,hexagon","81","81,80","diamond,square,hexagon,triangle,circle","A","C","","","","test","72","true","1","categorize-html","247","533392","0.0-6.0-144.0","23477","20224418","common"
"925.8000000715256","false","square","80","81,80","diamond,square,hexagon,triangle,circle","B","","","","","test","73","true","1","categorize-html","250","538431","0.0-6.0-147.0","23477","20224418","rare"
"352.8000000715256","false","square,diamond","81","81,80","diamond,square,hexagon,triangle,circle","B","A","","","","test","74","true","1","categorize-html","252","540307","0.0-6.0-149.0","23477","20224418","common"
"410.6999999284744","false","hexagon","80","81,80","diamond,square,hexagon,triangle,circle","C","","","","","test","75","true","1","categorize-html","254","542250","0.0-6.0-151.0","23477","20224418","rare"
"377.3000000715256","false","diamond","81","81,80","diamond,square,hexagon,triangle,circle","A","","","","","test","76","true","1","categorize-html","256","544146","0.0-6.0-153.0","23477","20224418","common"
"226.39999997615814","false","square","80","81,80","diamond,square,hexagon,triangle,circle","B","","","","","test","77","true","1","categorize-html","258","545881","0.0-6.0-155.0","23477","20224418","rare"
"324.2999999523163","false","diamond,square","81","81,80","diamond,square,hexagon,triangle,circle","A","B","","","","test","78","true","1","categorize-html","260","547726","0.0-6.0-157.0","23477","20224418","common"
"334.6999999284744","false","diamond","80","81,80","diamond,square,hexagon,triangle,circle","A","","","","","test","79","true","1","categorize-html","262","549568","0.0-6.0-159.0","23477","20224418","rare"
"1120.6999999284744","false","diamond,hexagon","81","81,80","diamond,square,hexagon,triangle,circle","A","C","","","","test","80","true","1","categorize-html","264","552212","0.0-6.0-161.0","23477","20224418","common"
"233.09999990463257","false","hexagon,diamond","80","81,80","diamond,square,hexagon,triangle,circle","C","A","","","","test","81","true","1","categorize-html","266","553967","0.0-6.0-163.0","23477","20224418","rare"
"355.7999999523163","false","hexagon,square","81","81,80","diamond,square,hexagon,triangle,circle","C","B","","","","test","82","true","1","categorize-html","268","555845","0.0-6.0-165.0","23477","20224418","common"
"412.2999999523163","false","square,hexagon","80","81,80","diamond,square,hexagon,triangle,circle","B","C","","","","test","83","true","1","categorize-html","270","557773","0.0-6.0-167.0","23477","20224418","rare"
"367.60000002384186","false","hexagon","81","81,80","diamond,square,hexagon,triangle,circle","C","","","","","test","84","true","1","categorize-html","272","559654","0.0-6.0-169.0","23477","20224418","common"
"330.89999997615814","false","square,hexagon","81","81,80","diamond,square,hexagon,triangle,circle","B","C","","","","test","85","true","1","categorize-html","274","561516","0.0-6.0-171.0","23477","20224418","common"
"425.3000000715256","false","square","80","81,80","diamond,square,hexagon,triangle,circle","B","","","","","test","86","true","1","categorize-html","276","563463","0.0-6.0-173.0","23477","20224418","rare"
"302.6999999284744","false","hexagon","80","81,80","diamond,square,hexagon,triangle,circle","C","","","","","test","87","true","1","categorize-html","278","565293","0.0-6.0-175.0","23477","20224418","rare"
"230.20000004768372","false","square,diamond","81","81,80","diamond,square,hexagon,triangle,circle","B","A","","","","test","88","true","1","categorize-html","280","567043","0.0-6.0-177.0","23477","20224418","common"
"254.20000004768372","false","diamond,hexagon","81","81,80","diamond,square,hexagon,triangle,circle","A","C","","","","test","89","true","1","categorize-html","282","568827","0.0-6.0-179.0","23477","20224418","common"
"272.10000002384186","false","hexagon","81","81,80","diamond,square,hexagon,triangle,circle","C","","","","","test","90","true","1","categorize-html","284","570622","0.0-6.0-181.0","23477","20224418","common"
"566.6000000238419","false","diamond","81","81,80","diamond,square,hexagon,triangle,circle","A","","","","","test","91","true","1","categorize-html","286","572704","0.0-6.0-183.0","23477","20224418","common"
"959.1000000238419","false","hexagon,square","81","81,80","diamond,square,hexagon,triangle,circle","C","B","","","","test","92","true","1","categorize-html","288","575187","0.0-6.0-185.0","23477","20224418","common"
"455.6999999284744","false","square","81","81,80","diamond,square,hexagon,triangle,circle","B","","","","","test","93","true","1","categorize-html","290","577166","0.0-6.0-187.0","23477","20224418","common"
"537.5","false","diamond,square","81","81,80","diamond,square,hexagon,triangle,circle","A","B","","","","test","94","true","1","categorize-html","292","579220","0.0-6.0-189.0","23477","20224418","common"
"678.3999999761581","false","hexagon,diamond","80","81,80","diamond,square,hexagon,triangle,circle","C","A","","","","test","95","true","1","categorize-html","294","581409","0.0-6.0-191.0","23477","20224418","rare"
"840.7000000476837","false","diamond","80","81,80","diamond,square,hexagon,triangle,circle","A","","","","","test","96","true","1","categorize-html","296","583784","0.0-6.0-193.0","23477","20224418","rare"
"693","false","diamond,square","80","81,80","diamond,square,hexagon,triangle,circle","A","B","","","","test","97","true","1","categorize-html","299","587782","0.0-6.0-196.0","23477","20224418","rare"
"412.10000002384186","false","hexagon,diamond","81","81,80","diamond,square,hexagon,triangle,circle","C","A","","","","test","98","true","1","categorize-html","301","589711","0.0-6.0-198.0","23477","20224418","common"
"298.40000009536743","false","diamond,hexagon","80","81,80","diamond,square,hexagon,triangle,circle","A","C","","","","test","99","true","1","categorize-html","303","591538","0.0-6.0-200.0","23477","20224418","rare"
"1618.3999999761581","false","square","80","81,80","diamond,square,hexagon,triangle,circle","B","","","","","test","100","true","1","categorize-html","305","594671","0.0-6.0-202.0","23477","20224418","rare"
"410.10000002384186","false","square,hexagon","81","81,80","diamond,square,hexagon,triangle,circle","B","C","","","","test","101","true","1","categorize-html","307","596593","0.0-6.0-204.0","23477","20224418","common"
"301.7000000476837","false","hexagon","80","81,80","diamond,square,hexagon,triangle,circle","C","","","","","test","102","true","1","categorize-html","309","598422","0.0-6.0-206.0","23477","20224418","rare"
"237.59999990463257","false","square","81","81,80","diamond,square,hexagon,triangle,circle","B","","","","","test","103","true","1","categorize-html","311","600174","0.0-6.0-208.0","23477","20224418","common"
"434.60000002384186","false","square,diamond","80","81,80","diamond,square,hexagon,triangle,circle","B","A","","","","test","104","true","1","categorize-html","313","602136","0.0-6.0-210.0","23477","20224418","rare"
"440.10000002384186","false","hexagon","81","81,80","diamond,square,hexagon,triangle,circle","C","","","","","test","105","true","1","categorize-html","315","604101","0.0-6.0-212.0","23477","20224418","common"
"208.70000004768372","false","hexagon,square","81","81,80","diamond,square,hexagon,triangle,circle","C","B","","","","test","106","true","1","categorize-html","317","605844","0.0-6.0-214.0","23477","20224418","common"
"290.2999999523163","false","diamond","80","81,80","diamond,square,hexagon,triangle,circle","A","","","","","test","107","true","1","categorize-html","319","607645","0.0-6.0-216.0","23477","20224418","rare"
"344","false","diamond","81","81,80","diamond,square,hexagon,triangle,circle","A","","","","","test","108","true","1","categorize-html","321","609512","0.0-6.0-218.0","23477","20224418","common"
"148.89999997615814","false","hexagon,diamond","81","81,80","diamond,square,hexagon,triangle,circle","C","A","","","","test","109","true","1","categorize-html","323","611188","0.0-6.0-220.0","23477","20224418","common"
"267.2000000476837","false","square","81","81,80","diamond,square,hexagon,triangle,circle","B","","","","","test","110","true","1","categorize-html","325","612977","0.0-6.0-222.0","23477","20224418","common"
"177.20000004768372","false","diamond","81","81,80","diamond,square,hexagon,triangle,circle","A","","","","","test","111","true","1","categorize-html","327","614684","0.0-6.0-224.0","23477","20224418","common"
"431.7000000476837","false","hexagon","81","81,80","diamond,square,hexagon,triangle,circle","C","","","","","test","112","true","1","categorize-html","329","616649","0.0-6.0-226.0","23477","20224418","common"
"351.89999997615814","false","diamond,hexagon","81","81,80","diamond,square,hexagon,triangle,circle","A","C","","","","test","113","true","1","categorize-html","331","618515","0.0-6.0-228.0","23477","20224418","common"
"470.1999999284744","false","square,hexagon","81","81,80","diamond,square,hexagon,triangle,circle","B","C","","","","test","114","true","1","categorize-html","333","620505","0.0-6.0-230.0","23477","20224418","common"
"1056.2999999523163","false","diamond","80","81,80","diamond,square,hexagon,triangle,circle","A","","","","","test","115","true","1","categorize-html","335","623078","0.0-6.0-232.0","23477","20224418","rare"
"556.2999999523163","false","square,diamond","80","81,80","diamond,square,hexagon,triangle,circle","B","A","","","","test","116","true","1","categorize-html","337","625163","0.0-6.0-234.0","23477","20224418","rare"
"334.5","false","square","81","81,80","diamond,square,hexagon,triangle,circle","B","","","","","test","117","true","1","categorize-html","339","627038","0.0-6.0-236.0","23477","20224418","common"
"330.2000000476837","false","hexagon,square","80","81,80","diamond,square,hexagon,triangle,circle","C","B","","","","test","118","true","1","categorize-html","341","628912","0.0-6.0-238.0","23477","20224418","rare"
"605.2999999523163","false","hexagon","80","81,80","diamond,square,hexagon,triangle,circle","C","","","","","test","119","true","1","categorize-html","343","631049","0.0-6.0-240.0","23477","20224418","rare"
"79.79999995231628","false","diamond,square","80","81,80","diamond,square,hexagon,triangle,circle","A","B","","","","test","120","true","1","categorize-html","345","632650","0.0-6.0-242.0","23477","20224418","rare"
