"rt","correct","stimulus","key_press","keys","symptoms_shuffle","symptom1","symptom2","symptom3","key","category","phase","trial","include","block","trial_type","trial_index","time_elapsed","internal_node_id","ppt","session","abresp"
"null","false","square,hexagon,circle","null","81,80","hexagon,diamond,square,triangle,circle","C","A","E","80","rare","training","1","true","1","categorize-html","4","37579","0.0-4.0-0.0","23352","202232911","none"
"3893.099999964237","false","diamond,hexagon,triangle","32","81,80","hexagon,diamond,square,triangle,circle","B","A","D","81","common","training","2","true","1","categorize-html","6","42485","0.0-4.0-2.0","23352","202232911","none"
"3087.2999999523163","false","circle,square,hexagon","32","81,80","hexagon,diamond,square,triangle,circle","E","C","A","80","rare","training","3","true","1","categorize-html","8","46585","0.0-4.0-4.0","23352","202232911","none"
"2221","false","hexagon,diamond,triangle","32","81,80","hexagon,diamond,square,triangle,circle","A","B","D","81","common","training","4","true","1","categorize-html","10","49816","0.0-4.0-6.0","23352","202232911","none"
"3330.300000011921","false","triangle,diamond,hexagon","32","81,80","hexagon,diamond,square,triangle,circle","D","B","A","81","common","training","5","true","1","categorize-html","12","54159","0.0-4.0-8.0","23352","202232911","none"
"2593.900000035763","false","diamond,hexagon,triangle","32","81,80","hexagon,diamond,square,triangle,circle","B","A","D","81","common","training","6","true","1","categorize-html","14","57766","0.0-4.0-10.0","23352","202232911","none"
"2442.699999988079","false","hexagon,diamond,triangle","32","81,80","hexagon,diamond,square,triangle,circle","A","B","D","81","common","training","7","true","1","categorize-html","16","61221","0.0-4.0-12.0","23352","202232911","none"
"2805.699999988079","false","diamond,triangle,hexagon","32","81,80","hexagon,diamond,square,triangle,circle","B","D","A","81","common","training","8","true","1","categorize-html","18","65040","0.0-4.0-14.0","23352","202232911","none"
"1713.300000011921","false","triangle,diamond,hexagon","32","81,80","hexagon,diamond,square,triangle,circle","D","B","A","81","common","training","9","true","1","categorize-html","20","67763","0.0-4.0-16.0","23352","202232911","none"
"1522.0999999642372","false","triangle,hexagon,diamond","32","81,80","hexagon,diamond,square,triangle,circle","D","A","B","81","common","training","10","true","1","categorize-html","22","70294","0.0-4.0-18.0","23352","202232911","none"
"2156.699999988079","false","hexagon,circle,square","32","81,80","hexagon,diamond,square,triangle,circle","A","E","C","80","rare","training","11","true","1","categorize-html","24","73463","0.0-4.0-20.0","23352","202232911","none"
"942.7999999523163","false","circle,hexagon,square","32","81,80","hexagon,diamond,square,triangle,circle","E","A","C","80","rare","training","12","true","1","categorize-html","26","75417","0.0-4.0-22.0","23352","202232911","none"
"2167.199999988079","false","diamond,triangle,hexagon","32","81,80","hexagon,diamond,square,triangle,circle","B","D","A","81","common","training","13","true","1","categorize-html","28","78589","0.0-4.0-24.0","23352","202232911","none"
"2015.3999999761581","false","square,circle,hexagon","32","81,80","hexagon,diamond,square,triangle,circle","C","E","A","80","rare","training","14","true","1","categorize-html","30","81617","0.0-4.0-26.0","23352","202232911","none"
"1259.1000000238419","false","hexagon,triangle,diamond","32","81,80","hexagon,diamond,square,triangle,circle","A","D","B","81","common","training","15","true","1","categorize-html","32","83888","0.0-4.0-28.0","23352","202232911","none"
"1677.199999988079","false","hexagon,triangle,diamond","32","81,80","hexagon,diamond,square,triangle,circle","A","D","B","81","common","training","16","true","1","categorize-html","34","86578","0.0-4.0-30.0","23352","202232911","none"
"2159.300000011921","false","triangle,hexagon,diamond","32","81,80","hexagon,diamond,square,triangle,circle","D","A","B","81","common","training","17","true","1","categorize-html","36","89749","0.0-4.0-32.0","23352","202232911","none"
"1608.300000011921","false","hexagon,diamond,triangle","32","81,80","hexagon,diamond,square,triangle,circle","A","B","D","81","common","training","18","true","1","categorize-html","38","92370","0.0-4.0-34.0","23352","202232911","none"
"723.8000000119209","false","triangle,hexagon,diamond","32","81,80","hexagon,diamond,square,triangle,circle","D","A","B","81","common","training","19","true","1","categorize-html","40","94119","0.0-4.0-36.0","23352","202232911","none"
"1754.300000011921","false","hexagon,triangle,diamond","32","81,80","hexagon,diamond,square,triangle,circle","A","D","B","81","common","training","20","true","1","categorize-html","42","96883","0.0-4.0-38.0","23352","202232911","none"
"3191.100000023842","false","triangle,diamond,hexagon","32","81,80","hexagon,diamond,square,triangle,circle","D","B","A","81","common","training","21","true","1","categorize-html","44","101087","0.0-4.0-40.0","23352","202232911","none"
"2160","false","hexagon,square,circle","32","81,80","hexagon,diamond,square,triangle,circle","A","C","E","80","rare","training","22","true","1","categorize-html","46","104253","0.0-4.0-42.0","23352","202232911","none"
"3758.5","false","diamond,hexagon,triangle","32","81,80","hexagon,diamond,square,triangle,circle","B","A","D","81","common","training","23","true","1","categorize-html","48","109024","0.0-4.0-44.0","23352","202232911","none"
"2302.400000035763","false","diamond,triangle,hexagon","32","81,80","hexagon,diamond,square,triangle,circle","B","D","A","81","common","training","24","true","1","categorize-html","50","112337","0.0-4.0-46.0","23352","202232911","none"
"2529.5","false","square","80","81,80","hexagon,diamond,square,triangle,circle","C","","","","","test","1","true","1","categorize-html","54","149404","0.0-6.0-0.0","23352","202232911","rare"
"1311.6000000238419","false","diamond,hexagon","81","81,80","hexagon,diamond,square,triangle,circle","B","A","","","","test","2","true","1","categorize-html","56","152219","0.0-6.0-2.0","23352","202232911","common"
"3629.300000011921","false","hexagon","81","81,80","hexagon,diamond,square,triangle,circle","A","","","","","test","3","true","1","categorize-html","58","157357","0.0-6.0-4.0","23352","202232911","common"
"1108.6000000238419","false","diamond","81","81,80","hexagon,diamond,square,triangle,circle","B","","","","","test","4","true","1","categorize-html","60","159979","0.0-6.0-6.0","23352","202232911","common"
"1046.5","false","hexagon,diamond","81","81,80","hexagon,diamond,square,triangle,circle","A","B","","","","test","5","true","1","categorize-html","62","162530","0.0-6.0-8.0","23352","202232911","common"
"939.1999999880791","false","square,diamond","81","81,80","hexagon,diamond,square,triangle,circle","C","B","","","","test","6","true","1","categorize-html","64","164979","0.0-6.0-10.0","23352","202232911","common"
"1134.800000011921","false","hexagon,square","80","81,80","hexagon,diamond,square,triangle,circle","A","C","","","","test","7","true","1","categorize-html","66","167624","0.0-6.0-12.0","23352","202232911","rare"
"996.5","false","diamond","81","81,80","hexagon,diamond,square,triangle,circle","B","","","","","test","8","true","1","categorize-html","68","170134","0.0-6.0-14.0","23352","202232911","common"
"1220.800000011921","false","square","80","81,80","hexagon,diamond,square,triangle,circle","C","","","","","test","9","true","1","categorize-html","70","172868","0.0-6.0-16.0","23352","202232911","rare"
"1200","false","hexagon","81","81,80","hexagon,diamond,square,triangle,circle","A","","","","","test","10","true","1","categorize-html","72","175578","0.0-6.0-18.0","23352","202232911","common"
"792","false","diamond,square","80","81,80","hexagon,diamond,square,triangle,circle","B","C","","","","test","11","true","1","categorize-html","74","177883","0.0-6.0-20.0","23352","202232911","rare"
"1446.6000000238419","false","square,hexagon","80","81,80","hexagon,diamond,square,triangle,circle","C","A","","","","test","12","true","1","categorize-html","76","180838","0.0-6.0-22.0","23352","202232911","rare"
"1124.2000000476837","false","diamond","81","81,80","hexagon,diamond,square,triangle,circle","B","","","","","test","13","true","1","categorize-html","78","183469","0.0-6.0-24.0","23352","202232911","common"
"2379.199999988079","false","square","80","81,80","hexagon,diamond,square,triangle,circle","C","","","","","test","14","true","1","categorize-html","80","187362","0.0-6.0-26.0","23352","202232911","rare"
"932.5","false","hexagon","81","81,80","hexagon,diamond,square,triangle,circle","A","","","","","test","15","true","1","categorize-html","82","189804","0.0-6.0-28.0","23352","202232911","common"
"2532.300000011921","false","square","80","81,80","hexagon,diamond,square,triangle,circle","C","","","","","test","16","true","1","categorize-html","84","193845","0.0-6.0-30.0","23352","202232911","rare"
"945.4000000357628","false","hexagon,square","80","81,80","hexagon,diamond,square,triangle,circle","A","C","","","","test","17","true","1","categorize-html","86","196303","0.0-6.0-32.0","23352","202232911","rare"
"1170.5","false","square,diamond","81","81,80","hexagon,diamond,square,triangle,circle","C","B","","","","test","18","true","1","categorize-html","88","198983","0.0-6.0-34.0","23352","202232911","common"
"1902.3999999761581","false","hexagon,diamond","81","81,80","hexagon,diamond,square,triangle,circle","A","B","","","","test","19","true","1","categorize-html","90","202398","0.0-6.0-36.0","23352","202232911","common"
"1325.8999999761581","false","diamond,square","81","81,80","hexagon,diamond,square,triangle,circle","B","C","","","","test","20","true","1","categorize-html","92","205237","0.0-6.0-38.0","23352","202232911","common"
"613.1999999880791","false","diamond","81","81,80","hexagon,diamond,square,triangle,circle","B","","","","","test","21","true","1","categorize-html","94","207356","0.0-6.0-40.0","23352","202232911","common"
"807.2000000476837","false","hexagon","80","81,80","hexagon,diamond,square,triangle,circle","A","","","","","test","22","true","1","categorize-html","96","209672","0.0-6.0-42.0","23352","202232911","rare"
"738.5","false","square,hexagon","80","81,80","hexagon,diamond,square,triangle,circle","C","A","","","","test","23","true","1","categorize-html","98","211923","0.0-6.0-44.0","23352","202232911","rare"
"934","false","diamond,hexagon","81","81,80","hexagon,diamond,square,triangle,circle","B","A","","","","test","24","true","1","categorize-html","100","214368","0.0-6.0-46.0","23352","202232911","common"
"1043.0999999642372","false","square,hexagon","80","81,80","hexagon,diamond,square,triangle,circle","C","A","","","","test","25","true","1","categorize-html","103","218823","0.0-6.0-49.0","23352","202232911","rare"
"462.5","false","hexagon,square","80","81,80","hexagon,diamond,square,triangle,circle","A","C","","","","test","26","true","1","categorize-html","105","220795","0.0-6.0-51.0","23352","202232911","rare"
"625.1999999880791","false","square","80","81,80","hexagon,diamond,square,triangle,circle","C","","","","","test","27","true","1","categorize-html","107","222932","0.0-6.0-53.0","23352","202232911","rare"
"776.0999999642372","false","diamond","81","81,80","hexagon,diamond,square,triangle,circle","B","","","","","test","28","true","1","categorize-html","109","225221","0.0-6.0-55.0","23352","202232911","common"
"1537.0999999642372","false","square,diamond","80","81,80","hexagon,diamond,square,triangle,circle","C","B","","","","test","29","true","1","categorize-html","111","228271","0.0-6.0-57.0","23352","202232911","rare"
"911","false","diamond,hexagon","81","81,80","hexagon,diamond,square,triangle,circle","B","A","","","","test","30","true","1","categorize-html","113","230691","0.0-6.0-59.0","23352","202232911","common"
"519.5","false","diamond,square","81","81,80","hexagon,diamond,square,triangle,circle","B","C","","","","test","31","true","1","categorize-html","115","232722","0.0-6.0-61.0","23352","202232911","common"
"1154.699999988079","false","hexagon,diamond","81","81,80","hexagon,diamond,square,triangle,circle","A","B","","","","test","32","true","1","categorize-html","117","235388","0.0-6.0-63.0","23352","202232911","common"
"1019.5","false","square","80","81,80","hexagon,diamond,square,triangle,circle","C","","","","","test","33","true","1","categorize-html","119","237921","0.0-6.0-65.0","23352","202232911","rare"
"724.2000000476837","false","diamond","81","81,80","hexagon,diamond,square,triangle,circle","B","","","","","test","34","true","1","categorize-html","121","240153","0.0-6.0-67.0","23352","202232911","common"
"4615.699999988079","false","hexagon","80","81,80","hexagon,diamond,square,triangle,circle","A","","","","","test","35","true","1","categorize-html","123","246282","0.0-6.0-69.0","23352","202232911","rare"
"1092.4000000357628","false","hexagon","80","81,80","hexagon,diamond,square,triangle,circle","A","","","","","test","36","true","1","categorize-html","125","248886","0.0-6.0-71.0","23352","202232911","rare"
"718.9000000357628","false","diamond","81","81,80","hexagon,diamond,square,triangle,circle","B","","","","","test","37","true","1","categorize-html","127","251108","0.0-6.0-73.0","23352","202232911","common"
"1397.699999988079","false","hexagon,diamond","81","81,80","hexagon,diamond,square,triangle,circle","A","B","","","","test","38","true","1","categorize-html","129","254013","0.0-6.0-75.0","23352","202232911","common"
"641.9000000357628","false","square,hexagon","80","81,80","hexagon,diamond,square,triangle,circle","C","A","","","","test","39","true","1","categorize-html","131","256164","0.0-6.0-77.0","23352","202232911","rare"
"702.8000000119209","false","square","80","81,80","hexagon,diamond,square,triangle,circle","C","","","","","test","40","true","1","categorize-html","133","258376","0.0-6.0-79.0","23352","202232911","rare"
"887.1000000238419","false","diamond,square","81","81,80","hexagon,diamond,square,triangle,circle","B","C","","","","test","41","true","1","categorize-html","135","260770","0.0-6.0-81.0","23352","202232911","common"
"948.6000000238419","false","hexagon,square","80","81,80","hexagon,diamond,square,triangle,circle","A","C","","","","test","42","true","1","categorize-html","137","263228","0.0-6.0-83.0","23352","202232911","rare"
"438.80000001192093","false","diamond","81","81,80","hexagon,diamond,square,triangle,circle","B","","","","","test","43","true","1","categorize-html","139","265178","0.0-6.0-85.0","23352","202232911","common"
"1187.199999988079","false","square,diamond","81","81,80","hexagon,diamond,square,triangle,circle","C","B","","","","test","44","true","1","categorize-html","141","267874","0.0-6.0-87.0","23352","202232911","common"
"1995.199999988079","false","square","80","81,80","hexagon,diamond,square,triangle,circle","C","","","","","test","45","true","1","categorize-html","143","271380","0.0-6.0-89.0","23352","202232911","rare"
"586","false","hexagon","81","81,80","hexagon,diamond,square,triangle,circle","A","","","","","test","46","true","1","categorize-html","145","273475","0.0-6.0-91.0","23352","202232911","common"
"653.0999999642372","false","hexagon","81","81,80","hexagon,diamond,square,triangle,circle","A","","","","","test","47","true","1","categorize-html","147","275637","0.0-6.0-93.0","23352","202232911","common"
"995.8999999761581","false","diamond,hexagon","81","81,80","hexagon,diamond,square,triangle,circle","B","A","","","","test","48","true","1","categorize-html","149","278146","0.0-6.0-95.0","23352","202232911","common"
"1047.300000011921","false","diamond,hexagon","81","81,80","hexagon,diamond,square,triangle,circle","B","A","","","","test","49","true","1","categorize-html","152","282752","0.0-6.0-98.0","23352","202232911","common"
"813","false","diamond","81","81,80","hexagon,diamond,square,triangle,circle","B","","","","","test","50","true","1","categorize-html","154","285074","0.0-6.0-100.0","23352","202232911","common"
"686","false","square,diamond","80","81,80","hexagon,diamond,square,triangle,circle","C","B","","","","test","51","true","1","categorize-html","156","287269","0.0-6.0-102.0","23352","202232911","rare"
"576.6999999880791","false","hexagon","81","81,80","hexagon,diamond,square,triangle,circle","A","","","","","test","52","true","1","categorize-html","158","289352","0.0-6.0-104.0","23352","202232911","common"
"771.1000000238419","false","square","80","81,80","hexagon,diamond,square,triangle,circle","C","","","","","test","53","true","1","categorize-html","160","291631","0.0-6.0-106.0","23352","202232911","rare"
"861.3999999761581","false","diamond,square","81","81,80","hexagon,diamond,square,triangle,circle","B","C","","","","test","54","true","1","categorize-html","162","294003","0.0-6.0-108.0","23352","202232911","common"
"475.5","false","square,hexagon","81","81,80","hexagon,diamond,square,triangle,circle","C","A","","","","test","55","true","1","categorize-html","164","295987","0.0-6.0-110.0","23352","202232911","common"
"895.2000000476837","false","hexagon","81","81,80","hexagon,diamond,square,triangle,circle","A","","","","","test","56","true","1","categorize-html","166","298391","0.0-6.0-112.0","23352","202232911","common"
"1441.800000011921","false","square","80","81,80","hexagon,diamond,square,triangle,circle","C","","","","","test","57","true","1","categorize-html","168","301341","0.0-6.0-114.0","23352","202232911","rare"
"2254","false","hexagon,square","80","81,80","hexagon,diamond,square,triangle,circle","A","C","","","","test","58","true","1","categorize-html","170","305104","0.0-6.0-116.0","23352","202232911","rare"
"981.1999999880791","false","hexagon,diamond","81","81,80","hexagon,diamond,square,triangle,circle","A","B","","","","test","59","true","1","categorize-html","172","307595","0.0-6.0-118.0","23352","202232911","common"
"798.6999999880791","false","diamond","81","81,80","hexagon,diamond,square,triangle,circle","B","","","","","test","60","true","1","categorize-html","174","309906","0.0-6.0-120.0","23352","202232911","common"
"2276.300000011921","false","hexagon,diamond","81","81,80","hexagon,diamond,square,triangle,circle","A","B","","","","test","61","true","1","categorize-html","176","313691","0.0-6.0-122.0","23352","202232911","common"
"1410.8999999761581","false","hexagon","81","81,80","hexagon,diamond,square,triangle,circle","A","","","","","test","62","true","1","categorize-html","178","316615","0.0-6.0-124.0","23352","202232911","common"
"756.6000000238419","false","square,diamond","81","81,80","hexagon,diamond,square,triangle,circle","C","B","","","","test","63","true","1","categorize-html","180","318884","0.0-6.0-126.0","23352","202232911","common"
"717.6999999880791","false","square","80","81,80","hexagon,diamond,square,triangle,circle","C","","","","","test","64","true","1","categorize-html","182","321111","0.0-6.0-128.0","23352","202232911","rare"
"575","false","hexagon,square","80","81,80","hexagon,diamond,square,triangle,circle","A","C","","","","test","65","true","1","categorize-html","184","323198","0.0-6.0-130.0","23352","202232911","rare"
"617.1999999880791","false","diamond","81","81,80","hexagon,diamond,square,triangle,circle","B","","","","","test","66","true","1","categorize-html","186","325328","0.0-6.0-132.0","23352","202232911","common"
"860.6000000238419","false","diamond,hexagon","81","81,80","hexagon,diamond,square,triangle,circle","B","A","","","","test","67","true","1","categorize-html","188","327692","0.0-6.0-134.0","23352","202232911","common"
"1578.5","false","diamond,square","81","81,80","hexagon,diamond,square,triangle,circle","B","C","","","","test","68","true","1","categorize-html","190","330782","0.0-6.0-136.0","23352","202232911","common"
"909.5","false","hexagon","81","81,80","hexagon,diamond,square,triangle,circle","A","","","","","test","69","true","1","categorize-html","192","333204","0.0-6.0-138.0","23352","202232911","common"
"753.1999999880791","false","square,hexagon","80","81,80","hexagon,diamond,square,triangle,circle","C","A","","","","test","70","true","1","categorize-html","194","335469","0.0-6.0-140.0","23352","202232911","rare"
"613","false","diamond","81","81,80","hexagon,diamond,square,triangle,circle","B","","","","","test","71","true","1","categorize-html","196","337586","0.0-6.0-142.0","23352","202232911","common"
"1649.6000000238419","false","square","80","81,80","hexagon,diamond,square,triangle,circle","C","","","","","test","72","true","1","categorize-html","198","340743","0.0-6.0-144.0","23352","202232911","rare"
"879.3999999761581","false","diamond,hexagon","81","81,80","hexagon,diamond,square,triangle,circle","B","A","","","","test","73","true","1","categorize-html","201","344932","0.0-6.0-147.0","23352","202232911","common"
"884.5","false","square,hexagon","80","81,80","hexagon,diamond,square,triangle,circle","C","A","","","","test","74","true","1","categorize-html","203","347326","0.0-6.0-149.0","23352","202232911","rare"
"728.8000000119209","false","hexagon","81","81,80","hexagon,diamond,square,triangle,circle","A","","","","","test","75","true","1","categorize-html","205","349563","0.0-6.0-151.0","23352","202232911","common"
"916.7999999523163","false","square","80","81,80","hexagon,diamond,square,triangle,circle","C","","","","","test","76","true","1","categorize-html","207","351990","0.0-6.0-153.0","23352","202232911","rare"
"860.6999999880791","false","square","80","81,80","hexagon,diamond,square,triangle,circle","C","","","","","test","77","true","1","categorize-html","209","354360","0.0-6.0-155.0","23352","202232911","rare"
"598.7000000476837","false","diamond","81","81,80","hexagon,diamond,square,triangle,circle","B","","","","","test","78","true","1","categorize-html","211","356472","0.0-6.0-157.0","23352","202232911","common"
"881.2999999523163","false","hexagon,diamond","81","81,80","hexagon,diamond,square,triangle,circle","A","B","","","","test","79","true","1","categorize-html","213","358866","0.0-6.0-159.0","23352","202232911","common"
"1529.5999999642372","false","square,diamond","81","81,80","hexagon,diamond,square,triangle,circle","C","B","","","","test","80","true","1","categorize-html","215","361908","0.0-6.0-161.0","23352","202232911","common"
"1373.5","false","hexagon","81","81,80","hexagon,diamond,square,triangle,circle","A","","","","","test","81","true","1","categorize-html","217","364787","0.0-6.0-163.0","23352","202232911","common"
"575","false","diamond","81","81,80","hexagon,diamond,square,triangle,circle","B","","","","","test","82","true","1","categorize-html","219","366871","0.0-6.0-165.0","23352","202232911","common"
"692.7999999523163","false","hexagon,square","80","81,80","hexagon,diamond,square,triangle,circle","A","C","","","","test","83","true","1","categorize-html","221","369073","0.0-6.0-167.0","23352","202232911","rare"
"1312.699999988079","false","diamond,square","81","81,80","hexagon,diamond,square,triangle,circle","B","C","","","","test","84","true","1","categorize-html","223","371894","0.0-6.0-169.0","23352","202232911","common"
"639.1000000238419","false","square","80","81,80","hexagon,diamond,square,triangle,circle","C","","","","","test","85","true","1","categorize-html","225","374039","0.0-6.0-171.0","23352","202232911","rare"
"651.7000000476837","false","hexagon,square","81","81,80","hexagon,diamond,square,triangle,circle","A","C","","","","test","86","true","1","categorize-html","227","376200","0.0-6.0-173.0","23352","202232911","common"
"641.2999999523163","false","diamond","81","81,80","hexagon,diamond,square,triangle,circle","B","","","","","test","87","true","1","categorize-html","229","378355","0.0-6.0-175.0","23352","202232911","common"
"1182.5999999642372","false","square","80","81,80","hexagon,diamond,square,triangle,circle","C","","","","","test","88","true","1","categorize-html","231","381045","0.0-6.0-177.0","23352","202232911","rare"
"788.8000000119209","false","diamond","81","81,80","hexagon,diamond,square,triangle,circle","B","","","","","test","89","true","1","categorize-html","233","383340","0.0-6.0-179.0","23352","202232911","common"
"1096.199999988079","false","hexagon","81","81,80","hexagon,diamond,square,triangle,circle","A","","","","","test","90","true","1","categorize-html","235","385945","0.0-6.0-181.0","23352","202232911","common"
"734.3000000119209","false","diamond,square","81","81,80","hexagon,diamond,square,triangle,circle","B","C","","","","test","91","true","1","categorize-html","237","388192","0.0-6.0-183.0","23352","202232911","common"
"1020.5999999642372","false","diamond,hexagon","81","81,80","hexagon,diamond,square,triangle,circle","B","A","","","","test","92","true","1","categorize-html","239","390719","0.0-6.0-185.0","23352","202232911","common"
"1135.5999999642372","false","square,diamond","81","81,80","hexagon,diamond,square,triangle,circle","C","B","","","","test","93","true","1","categorize-html","241","393367","0.0-6.0-187.0","23352","202232911","common"
"1911","false","hexagon","81","81,80","hexagon,diamond,square,triangle,circle","A","","","","","test","94","true","1","categorize-html","243","396789","0.0-6.0-189.0","23352","202232911","common"
"1112","false","hexagon,diamond","81","81,80","hexagon,diamond,square,triangle,circle","A","B","","","","test","95","true","1","categorize-html","245","399414","0.0-6.0-191.0","23352","202232911","common"
"980.3000000119209","false","square,hexagon","80","81,80","hexagon,diamond,square,triangle,circle","C","A","","","","test","96","true","1","categorize-html","247","401903","0.0-6.0-193.0","23352","202232911","rare"
"996.3000000119209","false","square,hexagon","80","81,80","hexagon,diamond,square,triangle,circle","C","A","","","","test","97","true","1","categorize-html","250","405603","0.0-6.0-196.0","23352","202232911","rare"
"1639.1000000238419","false","square","80","81,80","hexagon,diamond,square,triangle,circle","C","","","","","test","98","true","1","categorize-html","252","408754","0.0-6.0-198.0","23352","202232911","rare"
"593.3999999761581","false","square","80","81,80","hexagon,diamond,square,triangle,circle","C","","","","","test","99","true","1","categorize-html","254","410857","0.0-6.0-200.0","23352","202232911","rare"
"556.5","false","diamond,hexagon","81","81,80","hexagon,diamond,square,triangle,circle","B","A","","","","test","100","true","1","categorize-html","256","412923","0.0-6.0-202.0","23352","202232911","common"
"800.3000000119209","false","hexagon","80","81,80","hexagon,diamond,square,triangle,circle","A","","","","","test","101","true","1","categorize-html","258","415234","0.0-6.0-204.0","23352","202232911","rare"
"644.8999999761581","false","hexagon","81","81,80","hexagon,diamond,square,triangle,circle","A","","","","","test","102","true","1","categorize-html","260","417393","0.0-6.0-206.0","23352","202232911","common"
"880.5","false","diamond,square","81","81,80","hexagon,diamond,square,triangle,circle","B","C","","","","test","103","true","1","categorize-html","262","419784","0.0-6.0-208.0","23352","202232911","common"
"444.5","false","diamond","81","81,80","hexagon,diamond,square,triangle,circle","B","","","","","test","104","true","1","categorize-html","264","421738","0.0-6.0-210.0","23352","202232911","common"
"697.1000000238419","false","hexagon,square","80","81,80","hexagon,diamond,square,triangle,circle","A","C","","","","test","105","true","1","categorize-html","266","423949","0.0-6.0-212.0","23352","202232911","rare"
"574","false","diamond","81","81,80","hexagon,diamond,square,triangle,circle","B","","","","","test","106","true","1","categorize-html","268","426029","0.0-6.0-214.0","23352","202232911","common"
"1609.199999988079","false","square,diamond","81","81,80","hexagon,diamond,square,triangle,circle","C","B","","","","test","107","true","1","categorize-html","270","429151","0.0-6.0-216.0","23352","202232911","common"
"1269.800000011921","false","hexagon,diamond","81","81,80","hexagon,diamond,square,triangle,circle","A","B","","","","test","108","true","1","categorize-html","272","431934","0.0-6.0-218.0","23352","202232911","common"
"1728.0999999642372","false","square,diamond","81","81,80","hexagon,diamond,square,triangle,circle","C","B","","","","test","109","true","1","categorize-html","274","435176","0.0-6.0-220.0","23352","202232911","common"
"1496.2999999523163","false","square","80","81,80","hexagon,diamond,square,triangle,circle","C","","","","","test","110","true","1","categorize-html","276","438182","0.0-6.0-222.0","23352","202232911","rare"
"898","false","diamond,square","81","81,80","hexagon,diamond,square,triangle,circle","B","C","","","","test","111","true","1","categorize-html","278","440588","0.0-6.0-224.0","23352","202232911","common"
"722.1000000238419","false","hexagon,square","80","81,80","hexagon,diamond,square,triangle,circle","A","C","","","","test","112","true","1","categorize-html","280","442819","0.0-6.0-226.0","23352","202232911","rare"
"757.4000000357628","false","square,hexagon","80","81,80","hexagon,diamond,square,triangle,circle","C","A","","","","test","113","true","1","categorize-html","282","445086","0.0-6.0-228.0","23352","202232911","rare"
"1021.8999999761581","false","hexagon,diamond","81","81,80","hexagon,diamond,square,triangle,circle","A","B","","","","test","114","true","1","categorize-html","284","447616","0.0-6.0-230.0","23352","202232911","common"
"848.8999999761581","false","diamond,hexagon","81","81,80","hexagon,diamond,square,triangle,circle","B","A","","","","test","115","true","1","categorize-html","286","449977","0.0-6.0-232.0","23352","202232911","common"
"903.8999999761581","false","hexagon","80","81,80","hexagon,diamond,square,triangle,circle","A","","","","","test","116","true","1","categorize-html","288","452388","0.0-6.0-234.0","23352","202232911","rare"
"614.6000000238419","false","diamond","81","81,80","hexagon,diamond,square,triangle,circle","B","","","","","test","117","true","1","categorize-html","290","454507","0.0-6.0-236.0","23352","202232911","common"
"1062.9000000357628","false","hexagon","81","81,80","hexagon,diamond,square,triangle,circle","A","","","","","test","118","true","1","categorize-html","292","457074","0.0-6.0-238.0","23352","202232911","common"
"903.3000000119209","false","square","80","81,80","hexagon,diamond,square,triangle,circle","C","","","","","test","119","true","1","categorize-html","294","459489","0.0-6.0-240.0","23352","202232911","rare"
"1043.699999988079","false","diamond","81","81,80","hexagon,diamond,square,triangle,circle","B","","","","","test","120","true","1","categorize-html","296","462038","0.0-6.0-242.0","23352","202232911","common"
