"rt","correct","stimulus","key_press","keys","symptoms_shuffle","symptom1","symptom2","symptom3","key","category","phase","trial","include","block","trial_type","trial_index","time_elapsed","internal_node_id","ppt","session","abresp"
"682.2999999970198","false","circle,diamond,triangle","32","81,80","diamond,hexagon,triangle,square,circle","E","A","C","80","rare","training","1","true","1","categorize-html","4","32622","0.0-4.0-0.0","23316","202232913","none"
"3206.6999999955297","false","triangle,circle,diamond","32","81,80","diamond,hexagon,triangle,square,circle","C","E","A","80","rare","training","2","true","1","categorize-html","6","36836","0.0-4.0-2.0","23316","202232913","none"
"4407.60000000149","false","square,diamond,hexagon","32","81,80","diamond,hexagon,triangle,square,circle","D","A","B","81","common","training","3","true","1","categorize-html","8","42249","0.0-4.0-4.0","23316","202232913","none"
"2611.7000000029802","false","square,hexagon,diamond","32","81,80","diamond,hexagon,triangle,square,circle","D","B","A","81","common","training","4","true","1","categorize-html","10","45865","0.0-4.0-6.0","23316","202232913","none"
"1733.8999999985099","false","diamond,hexagon,square","32","81,80","diamond,hexagon,triangle,square,circle","A","B","D","81","common","training","5","true","1","categorize-html","12","48604","0.0-4.0-8.0","23316","202232913","none"
"1469.2999999970198","false","diamond,hexagon,square","32","81,80","diamond,hexagon,triangle,square,circle","A","B","D","81","common","training","6","true","1","categorize-html","14","51079","0.0-4.0-10.0","23316","202232913","none"
"1265.3999999985099","false","diamond,triangle,circle","32","81,80","diamond,hexagon,triangle,square,circle","A","C","E","80","rare","training","7","true","1","categorize-html","16","53347","0.0-4.0-12.0","23316","202232913","none"
"1580.6000000014901","false","diamond,circle,triangle","32","81,80","diamond,hexagon,triangle,square,circle","A","E","C","80","rare","training","8","true","1","categorize-html","18","55933","0.0-4.0-14.0","23316","202232913","none"
"1457.1999999955297","false","hexagon,square,diamond","32","81,80","diamond,hexagon,triangle,square,circle","B","D","A","81","common","training","9","true","1","categorize-html","20","58393","0.0-4.0-16.0","23316","202232913","none"
"937.5999999940395","false","hexagon,diamond,square","32","81,80","diamond,hexagon,triangle,square,circle","B","A","D","81","common","training","10","true","1","categorize-html","22","60336","0.0-4.0-18.0","23316","202232913","none"
"934.8999999985099","false","hexagon,diamond,square","32","81,80","diamond,hexagon,triangle,square,circle","B","A","D","81","common","training","11","true","1","categorize-html","24","62276","0.0-4.0-20.0","23316","202232913","none"
"1444.8000000044703","false","diamond,hexagon,square","32","81,80","diamond,hexagon,triangle,square,circle","A","B","D","81","common","training","12","true","1","categorize-html","26","64725","0.0-4.0-22.0","23316","202232913","none"
"1258.7000000029802","false","circle,triangle,diamond","32","81,80","diamond,hexagon,triangle,square,circle","E","C","A","80","rare","training","13","true","1","categorize-html","28","66989","0.0-4.0-24.0","23316","202232913","none"
"1596.7999999970198","false","hexagon,square,diamond","32","81,80","diamond,hexagon,triangle,square,circle","B","D","A","81","common","training","14","true","1","categorize-html","30","69591","0.0-4.0-26.0","23316","202232913","none"
"1890.8000000044703","false","triangle,diamond,circle","32","81,80","diamond,hexagon,triangle,square,circle","C","A","E","80","rare","training","15","true","1","categorize-html","32","72487","0.0-4.0-28.0","23316","202232913","none"
"2453","false","hexagon,square,diamond","32","81,80","diamond,hexagon,triangle,square,circle","B","D","A","81","common","training","16","true","1","categorize-html","34","75946","0.0-4.0-30.0","23316","202232913","none"
"3574.7000000029802","false","diamond,square,hexagon","32","81,80","diamond,hexagon,triangle,square,circle","A","D","B","81","common","training","17","true","1","categorize-html","36","80525","0.0-4.0-32.0","23316","202232913","none"
"4202.69999999553","false","square,hexagon,diamond","32","81,80","diamond,hexagon,triangle,square,circle","D","B","A","81","common","training","18","true","1","categorize-html","38","85733","0.0-4.0-34.0","23316","202232913","none"
"2876.7999999970198","false","diamond,square,hexagon","32","81,80","diamond,hexagon,triangle,square,circle","A","D","B","81","common","training","19","true","1","categorize-html","40","89614","0.0-4.0-36.0","23316","202232913","none"
"2252.60000000149","false","square,hexagon,diamond","32","81,80","diamond,hexagon,triangle,square,circle","D","B","A","81","common","training","20","true","1","categorize-html","42","92872","0.0-4.0-38.0","23316","202232913","none"
"2529","false","hexagon,diamond,square","32","81,80","diamond,hexagon,triangle,square,circle","B","A","D","81","common","training","21","true","1","categorize-html","44","96406","0.0-4.0-40.0","23316","202232913","none"
"4506.60000000149","false","diamond,square,hexagon","32","81,80","diamond,hexagon,triangle,square,circle","A","D","B","81","common","training","22","true","1","categorize-html","46","101917","0.0-4.0-42.0","23316","202232913","none"
"3454.1999999955297","false","square,diamond,hexagon","32","81,80","diamond,hexagon,triangle,square,circle","D","A","B","81","common","training","23","true","1","categorize-html","48","106377","0.0-4.0-44.0","23316","202232913","none"
"1960.8999999985099","false","square,diamond,hexagon","32","81,80","diamond,hexagon,triangle,square,circle","D","A","B","81","common","training","24","true","1","categorize-html","50","109343","0.0-4.0-46.0","23316","202232913","none"
"1679.6999999955297","false","diamond,hexagon","81","81,80","diamond,hexagon,triangle,square,circle","A","B","","","","test","1","true","1","categorize-html","54","133644","0.0-6.0-0.0","23316","202232913","common"
"2184.10000000149","false","triangle,hexagon","80","81,80","diamond,hexagon,triangle,square,circle","C","B","","","","test","2","true","1","categorize-html","56","137334","0.0-6.0-2.0","23316","202232913","rare"
"4006.89999999851","false","hexagon","81","81,80","diamond,hexagon,triangle,square,circle","B","","","","","test","3","true","1","categorize-html","58","142844","0.0-6.0-4.0","23316","202232913","common"
"1031.5","false","hexagon,diamond","81","81,80","diamond,hexagon,triangle,square,circle","B","A","","","","test","4","true","1","categorize-html","60","145379","0.0-6.0-6.0","23316","202232913","common"
"1837.6999999955297","false","diamond","81","81,80","diamond,hexagon,triangle,square,circle","A","","","","","test","5","true","1","categorize-html","62","148721","0.0-6.0-8.0","23316","202232913","common"
"1664","false","diamond","81","81,80","diamond,hexagon,triangle,square,circle","A","","","","","test","6","true","1","categorize-html","64","151890","0.0-6.0-10.0","23316","202232913","common"
"1282.1000000014901","false","triangle,diamond","80","81,80","diamond,hexagon,triangle,square,circle","C","A","","","","test","7","true","1","categorize-html","66","154678","0.0-6.0-12.0","23316","202232913","rare"
"1685.7000000029802","false","hexagon,triangle","80","81,80","diamond,hexagon,triangle,square,circle","B","C","","","","test","8","true","1","categorize-html","68","157869","0.0-6.0-14.0","23316","202232913","rare"
"1503.4000000059605","false","triangle","80","81,80","diamond,hexagon,triangle,square,circle","C","","","","","test","9","true","1","categorize-html","70","160877","0.0-6.0-16.0","23316","202232913","rare"
"1952.7999999970198","false","diamond,triangle","80","81,80","diamond,hexagon,triangle,square,circle","A","C","","","","test","10","true","1","categorize-html","72","164335","0.0-6.0-18.0","23316","202232913","rare"
"2030.1000000014901","false","hexagon","81","81,80","diamond,hexagon,triangle,square,circle","B","","","","","test","11","true","1","categorize-html","74","167870","0.0-6.0-20.0","23316","202232913","common"
"1494.0999999940395","false","triangle","80","81,80","diamond,hexagon,triangle,square,circle","C","","","","","test","12","true","1","categorize-html","76","170869","0.0-6.0-22.0","23316","202232913","rare"
"1091.2000000029802","false","hexagon","81","81,80","diamond,hexagon,triangle,square,circle","B","","","","","test","13","true","1","categorize-html","78","173467","0.0-6.0-24.0","23316","202232913","common"
"1319.1000000014901","false","hexagon,triangle","80","81,80","diamond,hexagon,triangle,square,circle","B","C","","","","test","14","true","1","categorize-html","80","176292","0.0-6.0-26.0","23316","202232913","rare"
"1715.7000000029802","false","triangle","80","81,80","diamond,hexagon,triangle,square,circle","C","","","","","test","15","true","1","categorize-html","82","179513","0.0-6.0-28.0","23316","202232913","rare"
"1008.7000000029802","false","triangle","80","81,80","diamond,hexagon,triangle,square,circle","C","","","","","test","16","true","1","categorize-html","84","182026","0.0-6.0-30.0","23316","202232913","rare"
"1410.2000000029802","false","diamond,hexagon","81","81,80","diamond,hexagon,triangle,square,circle","A","B","","","","test","17","true","1","categorize-html","86","184942","0.0-6.0-32.0","23316","202232913","common"
"1048.4000000059605","false","diamond","81","81,80","diamond,hexagon,triangle,square,circle","A","","","","","test","18","true","1","categorize-html","88","187496","0.0-6.0-34.0","23316","202232913","common"
"924.0999999940395","false","diamond,triangle","81","81,80","diamond,hexagon,triangle,square,circle","A","C","","","","test","19","true","1","categorize-html","90","189925","0.0-6.0-36.0","23316","202232913","common"
"846.6999999955297","false","diamond","81","81,80","diamond,hexagon,triangle,square,circle","A","","","","","test","20","true","1","categorize-html","92","192280","0.0-6.0-38.0","23316","202232913","common"
"944.2999999970198","false","hexagon,diamond","81","81,80","diamond,hexagon,triangle,square,circle","B","A","","","","test","21","true","1","categorize-html","94","194729","0.0-6.0-40.0","23316","202232913","common"
"1524.6999999955297","false","triangle,hexagon","80","81,80","diamond,hexagon,triangle,square,circle","C","B","","","","test","22","true","1","categorize-html","96","197759","0.0-6.0-42.0","23316","202232913","rare"
"1244.0999999940395","false","hexagon","81","81,80","diamond,hexagon,triangle,square,circle","B","","","","","test","23","true","1","categorize-html","98","200507","0.0-6.0-44.0","23316","202232913","common"
"1321","false","triangle,diamond","80","81,80","diamond,hexagon,triangle,square,circle","C","A","","","","test","24","true","1","categorize-html","100","203333","0.0-6.0-46.0","23316","202232913","rare"
"1617.1999999955297","false","diamond","81","81,80","diamond,hexagon,triangle,square,circle","A","","","","","test","25","true","1","categorize-html","103","208702","0.0-6.0-49.0","23316","202232913","common"
"1220.5","false","hexagon,triangle","80","81,80","diamond,hexagon,triangle,square,circle","B","C","","","","test","26","true","1","categorize-html","105","211427","0.0-6.0-51.0","23316","202232913","rare"
"1484.8999999985099","false","hexagon","81","81,80","diamond,hexagon,triangle,square,circle","B","","","","","test","27","true","1","categorize-html","107","214418","0.0-6.0-53.0","23316","202232913","common"
"6599.20000000298","false","triangle,hexagon","80","81,80","diamond,hexagon,triangle,square,circle","C","B","","","","test","28","true","1","categorize-html","109","222523","0.0-6.0-55.0","23316","202232913","rare"
"2868.7999999970198","false","diamond","81","81,80","diamond,hexagon,triangle,square,circle","A","","","","","test","29","true","1","categorize-html","111","226897","0.0-6.0-57.0","23316","202232913","common"
"2714.8000000044703","false","hexagon","80","81,80","diamond,hexagon,triangle,square,circle","B","","","","","test","30","true","1","categorize-html","113","231116","0.0-6.0-59.0","23316","202232913","rare"
"1611.3999999985099","false","diamond,triangle","80","81,80","diamond,hexagon,triangle,square,circle","A","C","","","","test","31","true","1","categorize-html","115","234233","0.0-6.0-61.0","23316","202232913","rare"
"1932.2000000029802","false","triangle,diamond","81","81,80","diamond,hexagon,triangle,square,circle","C","A","","","","test","32","true","1","categorize-html","117","237671","0.0-6.0-63.0","23316","202232913","common"
"2304.2000000029802","false","triangle","81","81,80","diamond,hexagon,triangle,square,circle","C","","","","","test","33","true","1","categorize-html","119","241479","0.0-6.0-65.0","23316","202232913","common"
"1076.1000000014901","false","diamond,hexagon","80","81,80","diamond,hexagon,triangle,square,circle","A","B","","","","test","34","true","1","categorize-html","121","244061","0.0-6.0-67.0","23316","202232913","rare"
"1096.8999999985099","false","hexagon,diamond","81","81,80","diamond,hexagon,triangle,square,circle","B","A","","","","test","35","true","1","categorize-html","123","246662","0.0-6.0-69.0","23316","202232913","common"
"1521","false","triangle","80","81,80","diamond,hexagon,triangle,square,circle","C","","","","","test","36","true","1","categorize-html","125","249689","0.0-6.0-71.0","23316","202232913","rare"
"2697.3000000044703","false","diamond,hexagon","81","81,80","diamond,hexagon,triangle,square,circle","A","B","","","","test","37","true","1","categorize-html","127","253891","0.0-6.0-73.0","23316","202232913","common"
"1300.7000000029802","false","triangle","80","81,80","diamond,hexagon,triangle,square,circle","C","","","","","test","38","true","1","categorize-html","129","256698","0.0-6.0-75.0","23316","202232913","rare"
"1681.5","false","triangle,hexagon","80","81,80","diamond,hexagon,triangle,square,circle","C","B","","","","test","39","true","1","categorize-html","131","259884","0.0-6.0-77.0","23316","202232913","rare"
"1066","false","triangle","80","81,80","diamond,hexagon,triangle,square,circle","C","","","","","test","40","true","1","categorize-html","133","262455","0.0-6.0-79.0","23316","202232913","rare"
"1264.6000000014901","false","diamond","81","81,80","diamond,hexagon,triangle,square,circle","A","","","","","test","41","true","1","categorize-html","135","265225","0.0-6.0-81.0","23316","202232913","common"
"713.5999999940395","false","hexagon,triangle","80","81,80","diamond,hexagon,triangle,square,circle","B","C","","","","test","42","true","1","categorize-html","137","267443","0.0-6.0-83.0","23316","202232913","rare"
"1279","false","diamond","81","81,80","diamond,hexagon,triangle,square,circle","A","","","","","test","43","true","1","categorize-html","139","270227","0.0-6.0-85.0","23316","202232913","common"
"1631.3000000044703","false","hexagon,diamond","81","81,80","diamond,hexagon,triangle,square,circle","B","A","","","","test","44","true","1","categorize-html","141","273364","0.0-6.0-87.0","23316","202232913","common"
"2574.60000000149","false","hexagon","80","81,80","diamond,hexagon,triangle,square,circle","B","","","","","test","45","true","1","categorize-html","143","277443","0.0-6.0-89.0","23316","202232913","rare"
"1650.5","false","diamond,triangle","80","81,80","diamond,hexagon,triangle,square,circle","A","C","","","","test","46","true","1","categorize-html","145","280598","0.0-6.0-91.0","23316","202232913","rare"
"764.5","false","hexagon","81","81,80","diamond,hexagon,triangle,square,circle","B","","","","","test","47","true","1","categorize-html","147","282867","0.0-6.0-93.0","23316","202232913","common"
"1446.8999999985099","false","triangle,diamond","80","81,80","diamond,hexagon,triangle,square,circle","C","A","","","","test","48","true","1","categorize-html","149","285819","0.0-6.0-95.0","23316","202232913","rare"
"5016.20000000298","false","triangle,diamond","80","81,80","diamond,hexagon,triangle,square,circle","C","A","","","","test","49","true","1","categorize-html","152","294077","0.0-6.0-98.0","23316","202232913","rare"
"3187.5","false","diamond,hexagon","81","81,80","diamond,hexagon,triangle,square,circle","A","B","","","","test","50","true","1","categorize-html","154","298770","0.0-6.0-100.0","23316","202232913","common"
"1301.8000000044703","false","triangle","80","81,80","diamond,hexagon,triangle,square,circle","C","","","","","test","51","true","1","categorize-html","156","301577","0.0-6.0-102.0","23316","202232913","rare"
"2127.5","false","diamond","81","81,80","diamond,hexagon,triangle,square,circle","A","","","","","test","52","true","1","categorize-html","158","305209","0.0-6.0-104.0","23316","202232913","common"
"1075.6000000014901","false","diamond,triangle","80","81,80","diamond,hexagon,triangle,square,circle","A","C","","","","test","53","true","1","categorize-html","160","307790","0.0-6.0-106.0","23316","202232913","rare"
"1107.3000000044703","false","hexagon,triangle","81","81,80","diamond,hexagon,triangle,square,circle","B","C","","","","test","54","true","1","categorize-html","162","310402","0.0-6.0-108.0","23316","202232913","common"
"1455.5","false","diamond","81","81,80","diamond,hexagon,triangle,square,circle","A","","","","","test","55","true","1","categorize-html","164","313363","0.0-6.0-110.0","23316","202232913","common"
"1797.1000000014901","false","hexagon","81","81,80","diamond,hexagon,triangle,square,circle","B","","","","","test","56","true","1","categorize-html","166","316665","0.0-6.0-112.0","23316","202232913","common"
"1101.3000000044703","false","hexagon","81","81,80","diamond,hexagon,triangle,square,circle","B","","","","","test","57","true","1","categorize-html","168","319272","0.0-6.0-114.0","23316","202232913","common"
"606.5","false","triangle","80","81,80","diamond,hexagon,triangle,square,circle","C","","","","","test","58","true","1","categorize-html","170","321383","0.0-6.0-116.0","23316","202232913","rare"
"1854.6999999955297","false","triangle,hexagon","81","81,80","diamond,hexagon,triangle,square,circle","C","B","","","","test","59","true","1","categorize-html","172","324743","0.0-6.0-118.0","23316","202232913","common"
"1496.1999999955297","false","hexagon,diamond","81","81,80","diamond,hexagon,triangle,square,circle","B","A","","","","test","60","true","1","categorize-html","174","327745","0.0-6.0-120.0","23316","202232913","common"
"1317.0999999940395","false","hexagon,triangle","80","81,80","diamond,hexagon,triangle,square,circle","B","C","","","","test","61","true","1","categorize-html","176","330567","0.0-6.0-122.0","23316","202232913","rare"
"703.6999999955297","false","hexagon","81","81,80","diamond,hexagon,triangle,square,circle","B","","","","","test","62","true","1","categorize-html","178","332775","0.0-6.0-124.0","23316","202232913","common"
"2162.60000000149","false","triangle,hexagon","80","81,80","diamond,hexagon,triangle,square,circle","C","B","","","","test","63","true","1","categorize-html","180","336443","0.0-6.0-126.0","23316","202232913","rare"
"1178.1000000014901","false","hexagon","81","81,80","diamond,hexagon,triangle,square,circle","B","","","","","test","64","true","1","categorize-html","182","339126","0.0-6.0-128.0","23316","202232913","common"
"1413.1000000014901","false","diamond","81","81,80","diamond,hexagon,triangle,square,circle","A","","","","","test","65","true","1","categorize-html","184","342043","0.0-6.0-130.0","23316","202232913","common"
"4928.89999999851","false","triangle","80","81,80","diamond,hexagon,triangle,square,circle","C","","","","","test","66","true","1","categorize-html","186","348477","0.0-6.0-132.0","23316","202232913","rare"
"2254.3000000044703","false","triangle,diamond","80","81,80","diamond,hexagon,triangle,square,circle","C","A","","","","test","67","true","1","categorize-html","188","352236","0.0-6.0-134.0","23316","202232913","rare"
"1464.1000000014901","false","diamond,triangle","80","81,80","diamond,hexagon,triangle,square,circle","A","C","","","","test","68","true","1","categorize-html","190","355204","0.0-6.0-136.0","23316","202232913","rare"
"1168.3999999985099","false","diamond,hexagon","81","81,80","diamond,hexagon,triangle,square,circle","A","B","","","","test","69","true","1","categorize-html","192","357878","0.0-6.0-138.0","23316","202232913","common"
"1729.2999999970198","false","diamond","81","81,80","diamond,hexagon,triangle,square,circle","A","","","","","test","70","true","1","categorize-html","194","361112","0.0-6.0-140.0","23316","202232913","common"
"2519.8000000044703","false","triangle","80","81,80","diamond,hexagon,triangle,square,circle","C","","","","","test","71","true","1","categorize-html","196","365136","0.0-6.0-142.0","23316","202232913","rare"
"1860.7000000029802","false","hexagon,diamond","81","81,80","diamond,hexagon,triangle,square,circle","B","A","","","","test","72","true","1","categorize-html","198","368502","0.0-6.0-144.0","23316","202232913","common"
"3337.6999999955297","false","diamond","81","81,80","diamond,hexagon,triangle,square,circle","A","","","","","test","73","true","1","categorize-html","201","374761","0.0-6.0-147.0","23316","202232913","common"
"1863.5","false","triangle,hexagon","80","81,80","diamond,hexagon,triangle,square,circle","C","B","","","","test","74","true","1","categorize-html","203","378130","0.0-6.0-149.0","23316","202232913","rare"
"2130.9000000059605","false","triangle","80","81,80","diamond,hexagon,triangle,square,circle","C","","","","","test","75","true","1","categorize-html","205","381766","0.0-6.0-151.0","23316","202232913","rare"
"1054.6000000014901","false","diamond","81","81,80","diamond,hexagon,triangle,square,circle","A","","","","","test","76","true","1","categorize-html","207","384325","0.0-6.0-153.0","23316","202232913","common"
"1708.1999999955297","false","hexagon,triangle","80","81,80","diamond,hexagon,triangle,square,circle","B","C","","","","test","77","true","1","categorize-html","209","387539","0.0-6.0-155.0","23316","202232913","rare"
"1572.5","false","diamond,triangle","80","81,80","diamond,hexagon,triangle,square,circle","A","C","","","","test","78","true","1","categorize-html","211","390616","0.0-6.0-157.0","23316","202232913","rare"
"857.2000000029802","false","hexagon","81","81,80","diamond,hexagon,triangle,square,circle","B","","","","","test","79","true","1","categorize-html","213","392978","0.0-6.0-159.0","23316","202232913","common"
"1795.6000000014901","false","hexagon,diamond","81","81,80","diamond,hexagon,triangle,square,circle","B","A","","","","test","80","true","1","categorize-html","215","396279","0.0-6.0-161.0","23316","202232913","common"
"1230","false","diamond,hexagon","81","81,80","diamond,hexagon,triangle,square,circle","A","B","","","","test","81","true","1","categorize-html","217","399015","0.0-6.0-163.0","23316","202232913","common"
"2660.10000000149","false","hexagon","80","81,80","diamond,hexagon,triangle,square,circle","B","","","","","test","82","true","1","categorize-html","219","403179","0.0-6.0-165.0","23316","202232913","rare"
"2057.5999999940395","false","triangle,diamond","80","81,80","diamond,hexagon,triangle,square,circle","C","A","","","","test","83","true","1","categorize-html","221","406742","0.0-6.0-167.0","23316","202232913","rare"
"2363.6999999955297","false","triangle","80","81,80","diamond,hexagon,triangle,square,circle","C","","","","","test","84","true","1","categorize-html","223","410611","0.0-6.0-169.0","23316","202232913","rare"
"1553.2000000029802","false","triangle","80","81,80","diamond,hexagon,triangle,square,circle","C","","","","","test","85","true","1","categorize-html","225","413670","0.0-6.0-171.0","23316","202232913","rare"
"1157","false","diamond","81","81,80","diamond,hexagon,triangle,square,circle","A","","","","","test","86","true","1","categorize-html","227","416331","0.0-6.0-173.0","23316","202232913","common"
"2368","false","diamond,triangle","80","81,80","diamond,hexagon,triangle,square,circle","A","C","","","","test","87","true","1","categorize-html","229","420204","0.0-6.0-175.0","23316","202232913","rare"
"1609.3999999985099","false","hexagon","81","81,80","diamond,hexagon,triangle,square,circle","B","","","","","test","88","true","1","categorize-html","231","423322","0.0-6.0-177.0","23316","202232913","common"
"1168.7000000029802","false","hexagon,triangle","80","81,80","diamond,hexagon,triangle,square,circle","B","C","","","","test","89","true","1","categorize-html","233","425995","0.0-6.0-179.0","23316","202232913","rare"
"1224","false","triangle,hexagon","80","81,80","diamond,hexagon,triangle,square,circle","C","B","","","","test","90","true","1","categorize-html","235","428724","0.0-6.0-181.0","23316","202232913","rare"
"1215.1000000014901","false","hexagon,diamond","81","81,80","diamond,hexagon,triangle,square,circle","B","A","","","","test","91","true","1","categorize-html","237","431444","0.0-6.0-183.0","23316","202232913","common"
"1168.8000000044703","false","diamond,hexagon","81","81,80","diamond,hexagon,triangle,square,circle","A","B","","","","test","92","true","1","categorize-html","239","434118","0.0-6.0-185.0","23316","202232913","common"
"1434.8999999985099","false","hexagon","81","81,80","diamond,hexagon,triangle,square,circle","B","","","","","test","93","true","1","categorize-html","241","437058","0.0-6.0-187.0","23316","202232913","common"
"1117.3999999985099","false","triangle,diamond","80","81,80","diamond,hexagon,triangle,square,circle","C","A","","","","test","94","true","1","categorize-html","243","439681","0.0-6.0-189.0","23316","202232913","rare"
"537.1999999955297","false","diamond","81","81,80","diamond,hexagon,triangle,square,circle","A","","","","","test","95","true","1","categorize-html","245","441723","0.0-6.0-191.0","23316","202232913","common"
"2102","false","triangle","80","81,80","diamond,hexagon,triangle,square,circle","C","","","","","test","96","true","1","categorize-html","247","445333","0.0-6.0-193.0","23316","202232913","rare"
"1865.6000000014901","false","diamond","81","81,80","diamond,hexagon,triangle,square,circle","A","","","","","test","97","true","1","categorize-html","250","450378","0.0-6.0-196.0","23316","202232913","common"
"920.3000000044703","false","hexagon,diamond","81","81,80","diamond,hexagon,triangle,square,circle","B","A","","","","test","98","true","1","categorize-html","252","452804","0.0-6.0-198.0","23316","202232913","common"
"1277.4000000059605","false","triangle","80","81,80","diamond,hexagon,triangle,square,circle","C","","","","","test","99","true","1","categorize-html","254","455587","0.0-6.0-200.0","23316","202232913","rare"
"1030.1000000014901","false","diamond","81","81,80","diamond,hexagon,triangle,square,circle","A","","","","","test","100","true","1","categorize-html","256","458122","0.0-6.0-202.0","23316","202232913","common"
"938.5","false","triangle,diamond","81","81,80","diamond,hexagon,triangle,square,circle","C","A","","","","test","101","true","1","categorize-html","258","460566","0.0-6.0-204.0","23316","202232913","common"
"1992.5999999940395","false","hexagon","81","81,80","diamond,hexagon,triangle,square,circle","B","","","","","test","102","true","1","categorize-html","260","464063","0.0-6.0-206.0","23316","202232913","common"
"1052.7999999970198","false","triangle,hexagon","80","81,80","diamond,hexagon,triangle,square,circle","C","B","","","","test","103","true","1","categorize-html","262","466622","0.0-6.0-208.0","23316","202232913","rare"
"1056.6999999955297","false","hexagon","81","81,80","diamond,hexagon,triangle,square,circle","B","","","","","test","104","true","1","categorize-html","264","469184","0.0-6.0-210.0","23316","202232913","common"
"1074.3000000044703","false","triangle","80","81,80","diamond,hexagon,triangle,square,circle","C","","","","","test","105","true","1","categorize-html","266","471763","0.0-6.0-212.0","23316","202232913","rare"
"2050.89999999851","false","hexagon,triangle","80","81,80","diamond,hexagon,triangle,square,circle","B","C","","","","test","106","true","1","categorize-html","268","475320","0.0-6.0-214.0","23316","202232913","rare"
"1499.8999999985099","false","diamond,hexagon","81","81,80","diamond,hexagon,triangle,square,circle","A","B","","","","test","107","true","1","categorize-html","270","478326","0.0-6.0-216.0","23316","202232913","common"
"2121.60000000149","false","diamond,triangle","80","81,80","diamond,hexagon,triangle,square,circle","A","C","","","","test","108","true","1","categorize-html","272","481952","0.0-6.0-218.0","23316","202232913","rare"
"839.8999999985099","false","diamond","81","81,80","diamond,hexagon,triangle,square,circle","A","","","","","test","109","true","1","categorize-html","274","484297","0.0-6.0-220.0","23316","202232913","common"
"636","false","hexagon,triangle","80","81,80","diamond,hexagon,triangle,square,circle","B","C","","","","test","110","true","1","categorize-html","276","486438","0.0-6.0-222.0","23316","202232913","rare"
"1128.6000000014901","false","hexagon","81","81,80","diamond,hexagon,triangle,square,circle","B","","","","","test","111","true","1","categorize-html","278","489071","0.0-6.0-224.0","23316","202232913","common"
"1373.1000000014901","false","triangle,diamond","80","81,80","diamond,hexagon,triangle,square,circle","C","A","","","","test","112","true","1","categorize-html","280","491950","0.0-6.0-226.0","23316","202232913","rare"
"1206.8999999985099","false","diamond,triangle","80","81,80","diamond,hexagon,triangle,square,circle","A","C","","","","test","113","true","1","categorize-html","282","494662","0.0-6.0-228.0","23316","202232913","rare"
"1000.7000000029802","false","triangle","80","81,80","diamond,hexagon,triangle,square,circle","C","","","","","test","114","true","1","categorize-html","284","497168","0.0-6.0-230.0","23316","202232913","rare"
"1918.3999999985099","false","hexagon","81","81,80","diamond,hexagon,triangle,square,circle","B","","","","","test","115","true","1","categorize-html","286","500592","0.0-6.0-232.0","23316","202232913","common"
"1460.5999999940395","false","hexagon,diamond","81","81,80","diamond,hexagon,triangle,square,circle","B","A","","","","test","116","true","1","categorize-html","288","503558","0.0-6.0-234.0","23316","202232913","common"
"1725.6000000014901","false","triangle","80","81,80","diamond,hexagon,triangle,square,circle","C","","","","","test","117","true","1","categorize-html","290","506788","0.0-6.0-236.0","23316","202232913","rare"
"1005.6999999955297","false","diamond","81","81,80","diamond,hexagon,triangle,square,circle","A","","","","","test","118","true","1","categorize-html","292","509299","0.0-6.0-238.0","23316","202232913","common"
"1305.8999999985099","false","triangle,hexagon","80","81,80","diamond,hexagon,triangle,square,circle","C","B","","","","test","119","true","1","categorize-html","294","512110","0.0-6.0-240.0","23316","202232913","rare"
"1191.5","false","diamond,hexagon","81","81,80","diamond,hexagon,triangle,square,circle","A","B","","","","test","120","true","1","categorize-html","296","514807","0.0-6.0-242.0","23316","202232913","common"
