"rt","correct","stimulus","key_press","keys","symptoms_shuffle","symptom1","symptom2","symptom3","key","category","phase","trial","include","block","trial_type","trial_index","time_elapsed","internal_node_id","ppt","session","abresp"
"3640.0999999046326","false","diamond,triangle,hexagon","32","81,80","hexagon,square,triangle,circle,diamond","E","C","A","80","rare","training","1","true","1","categorize-html","4","104580","0.0-4.0-0.0","23474","20224521","none"
"null","false","circle,hexagon,square","null","81,80","hexagon,square,triangle,circle,diamond","D","A","B","81","common","training","2","true","1","categorize-html","6","110617","0.0-4.0-2.0","23474","20224521","none"
"2053.7000000476837","false","circle,square,hexagon","32","81,80","hexagon,square,triangle,circle,diamond","D","B","A","81","common","training","3","true","1","categorize-html","8","113697","0.0-4.0-4.0","23474","20224521","none"
"2877.5","false","diamond,hexagon,triangle","32","81,80","hexagon,square,triangle,circle,diamond","E","A","C","80","rare","training","4","true","1","categorize-html","10","117590","0.0-4.0-6.0","23474","20224521","none"
"2046.2000000476837","false","circle,square,hexagon","32","81,80","hexagon,square,triangle,circle,diamond","D","B","A","81","common","training","5","true","1","categorize-html","12","120650","0.0-4.0-8.0","23474","20224521","none"
"1032.3999998569489","false","circle,square,hexagon","32","81,80","hexagon,square,triangle,circle,diamond","D","B","A","81","common","training","6","true","1","categorize-html","14","122701","0.0-4.0-10.0","23474","20224521","none"
"1958.4000000953674","false","hexagon,circle,square","32","81,80","hexagon,square,triangle,circle,diamond","A","D","B","81","common","training","7","true","1","categorize-html","16","125683","0.0-4.0-12.0","23474","20224521","none"
"1981.3999998569489","false","triangle,diamond,hexagon","32","81,80","hexagon,square,triangle,circle,diamond","C","E","A","80","rare","training","8","true","1","categorize-html","18","128678","0.0-4.0-14.0","23474","20224521","none"
"1896.7000000476837","false","square,hexagon,circle","32","81,80","hexagon,square,triangle,circle,diamond","B","A","D","81","common","training","9","true","1","categorize-html","20","131586","0.0-4.0-16.0","23474","20224521","none"
"1750.1000001430511","false","square,hexagon,circle","32","81,80","hexagon,square,triangle,circle,diamond","B","A","D","81","common","training","10","true","1","categorize-html","22","134355","0.0-4.0-18.0","23474","20224521","none"
"858.1000001430511","false","hexagon,circle,square","32","81,80","hexagon,square,triangle,circle,diamond","A","D","B","81","common","training","11","true","1","categorize-html","24","136227","0.0-4.0-20.0","23474","20224521","none"
"1716.5999999046326","false","hexagon,square,circle","32","81,80","hexagon,square,triangle,circle,diamond","A","B","D","81","common","training","12","true","1","categorize-html","26","138966","0.0-4.0-22.0","23474","20224521","none"
"718.3000001907349","false","circle,hexagon,square","32","81,80","hexagon,square,triangle,circle,diamond","D","A","B","81","common","training","13","true","1","categorize-html","28","140688","0.0-4.0-24.0","23474","20224521","none"
"1126.5","false","hexagon,circle,square","32","81,80","hexagon,square,triangle,circle,diamond","A","D","B","81","common","training","14","true","1","categorize-html","30","142831","0.0-4.0-26.0","23474","20224521","none"
"640.0999999046326","false","square,circle,hexagon","32","81,80","hexagon,square,triangle,circle,diamond","B","D","A","81","common","training","15","true","1","categorize-html","32","144496","0.0-4.0-28.0","23474","20224521","none"
"759.0999999046326","false","square,hexagon,circle","32","81,80","hexagon,square,triangle,circle,diamond","B","A","D","81","common","training","16","true","1","categorize-html","34","146287","0.0-4.0-30.0","23474","20224521","none"
"887.3999998569489","false","square,circle,hexagon","32","81,80","hexagon,square,triangle,circle,diamond","B","D","A","81","common","training","17","true","1","categorize-html","36","148199","0.0-4.0-32.0","23474","20224521","none"
"1706.1999998092651","false","triangle,hexagon,diamond","32","81,80","hexagon,square,triangle,circle,diamond","C","A","E","80","rare","training","18","true","1","categorize-html","38","150931","0.0-4.0-34.0","23474","20224521","none"
"517","false","circle,hexagon,square","32","81,80","hexagon,square,triangle,circle,diamond","D","A","B","81","common","training","19","true","1","categorize-html","40","152466","0.0-4.0-36.0","23474","20224521","none"
"726.7999999523163","false","square,circle,hexagon","32","81,80","hexagon,square,triangle,circle,diamond","B","D","A","81","common","training","20","true","1","categorize-html","42","154205","0.0-4.0-38.0","23474","20224521","none"
"1424","false","hexagon,diamond,triangle","32","81,80","hexagon,square,triangle,circle,diamond","A","E","C","80","rare","training","21","true","1","categorize-html","44","156641","0.0-4.0-40.0","23474","20224521","none"
"2256.7000000476837","false","hexagon,square,circle","32","81,80","hexagon,square,triangle,circle,diamond","A","B","D","81","common","training","22","true","1","categorize-html","46","159911","0.0-4.0-42.0","23474","20224521","none"
"922.9000000953674","false","hexagon,square,circle","32","81,80","hexagon,square,triangle,circle,diamond","A","B","D","81","common","training","23","true","1","categorize-html","48","161852","0.0-4.0-44.0","23474","20224521","none"
"1489.1000001430511","false","hexagon,triangle,diamond","32","81,80","hexagon,square,triangle,circle,diamond","A","C","E","80","rare","training","24","true","1","categorize-html","50","164362","0.0-4.0-46.0","23474","20224521","none"
"1653.2999999523163","false","diamond,triangle,hexagon","32","81,80","hexagon,square,triangle,circle,diamond","E","C","A","80","rare","training","25","true","2","categorize-html","53","179150","0.0-4.0-49.0","23474","20224521","none"
"1571","false","hexagon,square,circle","32","81,80","hexagon,square,triangle,circle,diamond","A","B","D","81","common","training","26","true","2","categorize-html","55","181730","0.0-4.0-51.0","23474","20224521","none"
"1254","false","square,circle,hexagon","32","81,80","hexagon,square,triangle,circle,diamond","B","D","A","81","common","training","27","true","2","categorize-html","57","184014","0.0-4.0-53.0","23474","20224521","none"
"1880.9000000953674","false","hexagon,circle,square","32","81,80","hexagon,square,triangle,circle,diamond","A","D","B","81","common","training","28","true","2","categorize-html","59","186912","0.0-4.0-55.0","23474","20224521","none"
"1240.2999999523163","false","circle,square,hexagon","32","81,80","hexagon,square,triangle,circle,diamond","D","B","A","81","common","training","29","true","2","categorize-html","61","189176","0.0-4.0-57.0","23474","20224521","none"
"2507.5","false","circle,square,hexagon","32","81,80","hexagon,square,triangle,circle,diamond","D","B","A","81","common","training","30","true","2","categorize-html","63","192716","0.0-4.0-59.0","23474","20224521","none"
"2722.399999856949","false","triangle,hexagon,diamond","32","81,80","hexagon,square,triangle,circle,diamond","C","A","E","80","rare","training","31","true","2","categorize-html","65","196461","0.0-4.0-61.0","23474","20224521","none"
"2200.5","false","hexagon,square,circle","32","81,80","hexagon,square,triangle,circle,diamond","A","B","D","81","common","training","32","true","2","categorize-html","67","199692","0.0-4.0-63.0","23474","20224521","none"
"2527","false","square,circle,hexagon","32","81,80","hexagon,square,triangle,circle,diamond","B","D","A","81","common","training","33","true","2","categorize-html","69","203249","0.0-4.0-65.0","23474","20224521","none"
"1767.6999998092651","false","circle,hexagon,square","32","81,80","hexagon,square,triangle,circle,diamond","D","A","B","81","common","training","34","true","2","categorize-html","71","206035","0.0-4.0-67.0","23474","20224521","none"
"2318","false","hexagon,circle,square","32","81,80","hexagon,square,triangle,circle,diamond","A","D","B","81","common","training","35","true","2","categorize-html","73","209378","0.0-4.0-69.0","23474","20224521","none"
"2060.2999999523163","false","square,hexagon,circle","32","81,80","hexagon,square,triangle,circle,diamond","B","A","D","81","common","training","36","true","2","categorize-html","75","212466","0.0-4.0-71.0","23474","20224521","none"
"1264.5","false","triangle,diamond,hexagon","32","81,80","hexagon,square,triangle,circle,diamond","C","E","A","80","rare","training","37","true","2","categorize-html","77","214744","0.0-4.0-73.0","23474","20224521","none"
"1241.6000001430511","false","square,hexagon,circle","32","81,80","hexagon,square,triangle,circle,diamond","B","A","D","81","common","training","38","true","2","categorize-html","79","217014","0.0-4.0-75.0","23474","20224521","none"
"1904.7999999523163","false","hexagon,triangle,diamond","32","81,80","hexagon,square,triangle,circle,diamond","A","C","E","80","rare","training","39","true","2","categorize-html","81","219931","0.0-4.0-77.0","23474","20224521","none"
"1124.1000001430511","false","hexagon,diamond,triangle","32","81,80","hexagon,square,triangle,circle,diamond","A","E","C","80","rare","training","40","true","2","categorize-html","83","222067","0.0-4.0-79.0","23474","20224521","none"
"1250.0999999046326","false","circle,hexagon,square","32","81,80","hexagon,square,triangle,circle,diamond","D","A","B","81","common","training","41","true","2","categorize-html","85","224342","0.0-4.0-81.0","23474","20224521","none"
"927.0999999046326","false","diamond,hexagon,triangle","32","81,80","hexagon,square,triangle,circle,diamond","E","A","C","80","rare","training","42","true","2","categorize-html","87","226278","0.0-4.0-83.0","23474","20224521","none"
"1177.8999998569489","false","hexagon,circle,square","32","81,80","hexagon,square,triangle,circle,diamond","A","D","B","81","common","training","43","true","2","categorize-html","89","228477","0.0-4.0-85.0","23474","20224521","none"
"1097.3999998569489","false","square,circle,hexagon","32","81,80","hexagon,square,triangle,circle,diamond","B","D","A","81","common","training","44","true","2","categorize-html","91","230591","0.0-4.0-87.0","23474","20224521","none"
"1046.2000000476837","false","circle,square,hexagon","32","81,80","hexagon,square,triangle,circle,diamond","D","B","A","81","common","training","45","true","2","categorize-html","93","232658","0.0-4.0-89.0","23474","20224521","none"
"1113.2000000476837","false","circle,hexagon,square","32","81,80","hexagon,square,triangle,circle,diamond","D","A","B","81","common","training","46","true","2","categorize-html","95","234795","0.0-4.0-91.0","23474","20224521","none"
"1297","false","hexagon,square,circle","32","81,80","hexagon,square,triangle,circle,diamond","A","B","D","81","common","training","47","true","2","categorize-html","97","237116","0.0-4.0-93.0","23474","20224521","none"
"1022.5","false","square,hexagon,circle","32","81,80","hexagon,square,triangle,circle,diamond","B","A","D","81","common","training","48","true","2","categorize-html","99","239159","0.0-4.0-95.0","23474","20224521","none"
"3765.2000000476837","false","triangle","80","81,80","hexagon,square,triangle,circle,diamond","C","","","","","test","1","true","1","categorize-html","103","275128","0.0-6.0-0.0","23474","20224521","rare"
"2711.7000000476837","false","triangle,square","80","81,80","hexagon,square,triangle,circle,diamond","C","B","","","","test","2","true","1","categorize-html","105","279358","0.0-6.0-2.0","23474","20224521","rare"
"1872.7000000476837","false","square","81","81,80","hexagon,square,triangle,circle,diamond","B","","","","","test","3","true","1","categorize-html","107","282744","0.0-6.0-4.0","23474","20224521","common"
"820.2000000476837","false","square,hexagon","81","81,80","hexagon,square,triangle,circle,diamond","B","A","","","","test","4","true","1","categorize-html","109","285084","0.0-6.0-6.0","23474","20224521","common"
"3184.5","false","hexagon,triangle","80","81,80","hexagon,square,triangle,circle,diamond","A","C","","","","test","5","true","1","categorize-html","111","289780","0.0-6.0-8.0","23474","20224521","rare"
"839","false","triangle,hexagon","80","81,80","hexagon,square,triangle,circle,diamond","C","A","","","","test","6","true","1","categorize-html","113","292136","0.0-6.0-10.0","23474","20224521","rare"
"1677.8999998569489","false","square,triangle","80","81,80","hexagon,square,triangle,circle,diamond","B","C","","","","test","7","true","1","categorize-html","115","295333","0.0-6.0-12.0","23474","20224521","rare"
"909.7999999523163","false","hexagon","81","81,80","hexagon,square,triangle,circle,diamond","A","","","","","test","8","true","1","categorize-html","117","297769","0.0-6.0-14.0","23474","20224521","common"
"763.5","false","hexagon,square","81","81,80","hexagon,square,triangle,circle,diamond","A","B","","","","test","9","true","1","categorize-html","119","300054","0.0-6.0-16.0","23474","20224521","common"
"1987.5","false","square","81","81,80","hexagon,square,triangle,circle,diamond","B","","","","","test","10","true","1","categorize-html","121","303567","0.0-6.0-18.0","23474","20224521","common"
"738.6000001430511","false","hexagon","81","81,80","hexagon,square,triangle,circle,diamond","A","","","","","test","11","true","1","categorize-html","123","305823","0.0-6.0-20.0","23474","20224521","common"
"767","false","triangle","80","81,80","hexagon,square,triangle,circle,diamond","C","","","","","test","12","true","1","categorize-html","125","308113","0.0-6.0-22.0","23474","20224521","rare"
"1665.2000000476837","false","hexagon,triangle","80","81,80","hexagon,square,triangle,circle,diamond","A","C","","","","test","13","true","1","categorize-html","127","311304","0.0-6.0-24.0","23474","20224521","rare"
"686.7999999523163","false","triangle","80","81,80","hexagon,square,triangle,circle,diamond","C","","","","","test","14","true","1","categorize-html","129","313512","0.0-6.0-26.0","23474","20224521","rare"
"837.9000000953674","false","square,hexagon","81","81,80","hexagon,square,triangle,circle,diamond","B","A","","","","test","15","true","1","categorize-html","131","315862","0.0-6.0-28.0","23474","20224521","common"
"1149.6999998092651","false","triangle,square","80","81,80","hexagon,square,triangle,circle,diamond","C","B","","","","test","16","true","1","categorize-html","133","318534","0.0-6.0-30.0","23474","20224521","rare"
"840.6999998092651","false","square","81","81,80","hexagon,square,triangle,circle,diamond","B","","","","","test","17","true","1","categorize-html","135","320893","0.0-6.0-32.0","23474","20224521","common"
"1113.5999999046326","false","square,triangle","80","81,80","hexagon,square,triangle,circle,diamond","B","C","","","","test","18","true","1","categorize-html","137","323530","0.0-6.0-34.0","23474","20224521","rare"
"593.5","false","hexagon,square","81","81,80","hexagon,square,triangle,circle,diamond","A","B","","","","test","19","true","1","categorize-html","139","325648","0.0-6.0-36.0","23474","20224521","common"
"634","false","triangle","80","81,80","hexagon,square,triangle,circle,diamond","C","","","","","test","20","true","1","categorize-html","141","327801","0.0-6.0-38.0","23474","20224521","rare"
"1250.7000000476837","false","hexagon","81","81,80","hexagon,square,triangle,circle,diamond","A","","","","","test","21","true","1","categorize-html","143","330572","0.0-6.0-40.0","23474","20224521","common"
"822.3999998569489","false","hexagon","81","81,80","hexagon,square,triangle,circle,diamond","A","","","","","test","22","true","1","categorize-html","145","332903","0.0-6.0-42.0","23474","20224521","common"
"940.8999998569489","false","triangle,hexagon","80","81,80","hexagon,square,triangle,circle,diamond","C","A","","","","test","23","true","1","categorize-html","147","335368","0.0-6.0-44.0","23474","20224521","rare"
"860.2999999523163","false","square","81","81,80","hexagon,square,triangle,circle,diamond","B","","","","","test","24","true","1","categorize-html","149","337739","0.0-6.0-46.0","23474","20224521","common"
"1107.7999999523163","false","hexagon,square","81","81,80","hexagon,square,triangle,circle,diamond","A","B","","","","test","25","true","1","categorize-html","152","342546","0.0-6.0-49.0","23474","20224521","common"
"1161.7999999523163","false","square,triangle","80","81,80","hexagon,square,triangle,circle,diamond","B","C","","","","test","26","true","1","categorize-html","154","345229","0.0-6.0-51.0","23474","20224521","rare"
"853","false","hexagon","81","81,80","hexagon,square,triangle,circle,diamond","A","","","","","test","27","true","1","categorize-html","156","347607","0.0-6.0-53.0","23474","20224521","common"
"725.9000000953674","false","square","81","81,80","hexagon,square,triangle,circle,diamond","B","","","","","test","28","true","1","categorize-html","158","349859","0.0-6.0-55.0","23474","20224521","common"
"833.2000000476837","false","hexagon,triangle","80","81,80","hexagon,square,triangle,circle,diamond","A","C","","","","test","29","true","1","categorize-html","160","352210","0.0-6.0-57.0","23474","20224521","rare"
"614.0999999046326","false","triangle","80","81,80","hexagon,square,triangle,circle,diamond","C","","","","","test","30","true","1","categorize-html","162","354346","0.0-6.0-59.0","23474","20224521","rare"
"510.2999999523163","false","square,hexagon","81","81,80","hexagon,square,triangle,circle,diamond","B","A","","","","test","31","true","1","categorize-html","164","356372","0.0-6.0-61.0","23474","20224521","common"
"1040.2999999523163","false","hexagon","81","81,80","hexagon,square,triangle,circle,diamond","A","","","","","test","32","true","1","categorize-html","166","358927","0.0-6.0-63.0","23474","20224521","common"
"1378.2999999523163","false","square","81","81,80","hexagon,square,triangle,circle,diamond","B","","","","","test","33","true","1","categorize-html","168","361829","0.0-6.0-65.0","23474","20224521","common"
"875.3999998569489","false","triangle,square","80","81,80","hexagon,square,triangle,circle,diamond","C","B","","","","test","34","true","1","categorize-html","170","364224","0.0-6.0-67.0","23474","20224521","rare"
"3407.2000000476837","false","triangle,hexagon","80","81,80","hexagon,square,triangle,circle,diamond","C","A","","","","test","35","true","1","categorize-html","172","369154","0.0-6.0-69.0","23474","20224521","rare"
"1054.2000000476837","false","triangle","80","81,80","hexagon,square,triangle,circle,diamond","C","","","","","test","36","true","1","categorize-html","174","371716","0.0-6.0-71.0","23474","20224521","rare"
"1937","false","triangle","80","81,80","hexagon,square,triangle,circle,diamond","C","","","","","test","37","true","1","categorize-html","176","375179","0.0-6.0-73.0","23474","20224521","rare"
"1618.5","false","hexagon","81","81,80","hexagon,square,triangle,circle,diamond","A","","","","","test","38","true","1","categorize-html","178","378325","0.0-6.0-75.0","23474","20224521","common"
"1487.0999999046326","false","triangle,square","80","81,80","hexagon,square,triangle,circle,diamond","C","B","","","","test","39","true","1","categorize-html","180","381329","0.0-6.0-77.0","23474","20224521","rare"
"1324.7999999523163","false","triangle,hexagon","80","81,80","hexagon,square,triangle,circle,diamond","C","A","","","","test","40","true","1","categorize-html","182","384177","0.0-6.0-79.0","23474","20224521","rare"
"1217.7000000476837","false","square,triangle","81","81,80","hexagon,square,triangle,circle,diamond","B","C","","","","test","41","true","1","categorize-html","184","386925","0.0-6.0-81.0","23474","20224521","common"
"738.7000000476837","false","hexagon,square","81","81,80","hexagon,square,triangle,circle,diamond","A","B","","","","test","42","true","1","categorize-html","186","389182","0.0-6.0-83.0","23474","20224521","common"
"550.8999998569489","false","square","81","81,80","hexagon,square,triangle,circle,diamond","B","","","","","test","43","true","1","categorize-html","188","391253","0.0-6.0-85.0","23474","20224521","common"
"840.7999999523163","false","hexagon,triangle","80","81,80","hexagon,square,triangle,circle,diamond","A","C","","","","test","44","true","1","categorize-html","190","393611","0.0-6.0-87.0","23474","20224521","rare"
"555.2000000476837","false","square,hexagon","81","81,80","hexagon,square,triangle,circle,diamond","B","A","","","","test","45","true","1","categorize-html","192","395687","0.0-6.0-89.0","23474","20224521","common"
"736.7999999523163","false","square","81","81,80","hexagon,square,triangle,circle,diamond","B","","","","","test","46","true","1","categorize-html","194","397940","0.0-6.0-91.0","23474","20224521","common"
"714.6000001430511","false","triangle","80","81,80","hexagon,square,triangle,circle,diamond","C","","","","","test","47","true","1","categorize-html","196","400186","0.0-6.0-93.0","23474","20224521","rare"
"616.2999999523163","false","hexagon","81","81,80","hexagon,square,triangle,circle,diamond","A","","","","","test","48","true","1","categorize-html","198","402315","0.0-6.0-95.0","23474","20224521","common"
"2044.2999999523163","false","hexagon","81","81,80","hexagon,square,triangle,circle,diamond","A","","","","","test","49","true","1","categorize-html","201","483470","0.0-6.0-98.0","23474","20224521","common"
"530.6000001430511","false","hexagon","81","81,80","hexagon,square,triangle,circle,diamond","A","","","","","test","50","true","1","categorize-html","203","485531","0.0-6.0-100.0","23474","20224521","common"
"504.7000000476837","false","square,hexagon","81","81,80","hexagon,square,triangle,circle,diamond","B","A","","","","test","51","true","1","categorize-html","205","487546","0.0-6.0-102.0","23474","20224521","common"
"457.10000014305115","false","square","81","81,80","hexagon,square,triangle,circle,diamond","B","","","","","test","52","true","1","categorize-html","207","489515","0.0-6.0-104.0","23474","20224521","common"
"355.30000019073486","false","square","81","81,80","hexagon,square,triangle,circle,diamond","B","","","","","test","53","true","1","categorize-html","209","491393","0.0-6.0-106.0","23474","20224521","common"
"656.4000000953674","false","triangle,hexagon","80","81,80","hexagon,square,triangle,circle,diamond","C","A","","","","test","54","true","1","categorize-html","211","493567","0.0-6.0-108.0","23474","20224521","rare"
"533.3999998569489","false","hexagon,square","81","81,80","hexagon,square,triangle,circle,diamond","A","B","","","","test","55","true","1","categorize-html","213","495615","0.0-6.0-110.0","23474","20224521","common"
"1501.5","false","hexagon,triangle","80","81,80","hexagon,square,triangle,circle,diamond","A","C","","","","test","56","true","1","categorize-html","215","498628","0.0-6.0-112.0","23474","20224521","rare"
"860","false","triangle","80","81,80","hexagon,square,triangle,circle,diamond","C","","","","","test","57","true","1","categorize-html","217","501004","0.0-6.0-114.0","23474","20224521","rare"
"1018.9000000953674","false","square,triangle","80","81,80","hexagon,square,triangle,circle,diamond","B","C","","","","test","58","true","1","categorize-html","219","503541","0.0-6.0-116.0","23474","20224521","rare"
"537.3000001907349","false","triangle","81","81,80","hexagon,square,triangle,circle,diamond","C","","","","","test","59","true","1","categorize-html","221","505600","0.0-6.0-118.0","23474","20224521","common"
"857.9000000953674","false","triangle,square","80","81,80","hexagon,square,triangle,circle,diamond","C","B","","","","test","60","true","1","categorize-html","223","507976","0.0-6.0-120.0","23474","20224521","rare"
"659","false","hexagon,square","81","81,80","hexagon,square,triangle,circle,diamond","A","B","","","","test","61","true","1","categorize-html","225","510149","0.0-6.0-122.0","23474","20224521","common"
"874.5","false","square","81","81,80","hexagon,square,triangle,circle,diamond","B","","","","","test","62","true","1","categorize-html","227","512541","0.0-6.0-124.0","23474","20224521","common"
"575.8000001907349","false","square,hexagon","81","81,80","hexagon,square,triangle,circle,diamond","B","A","","","","test","63","true","1","categorize-html","229","514645","0.0-6.0-126.0","23474","20224521","common"
"669","false","hexagon,triangle","80","81,80","hexagon,square,triangle,circle,diamond","A","C","","","","test","64","true","1","categorize-html","231","516841","0.0-6.0-128.0","23474","20224521","rare"
"850.2000000476837","false","hexagon","80","81,80","hexagon,square,triangle,circle,diamond","A","","","","","test","65","true","1","categorize-html","233","519221","0.0-6.0-130.0","23474","20224521","rare"
"617","false","square","81","81,80","hexagon,square,triangle,circle,diamond","B","","","","","test","66","true","1","categorize-html","235","521360","0.0-6.0-132.0","23474","20224521","common"
"533.2000000476837","false","square,triangle","80","81,80","hexagon,square,triangle,circle,diamond","B","C","","","","test","67","true","1","categorize-html","237","523419","0.0-6.0-134.0","23474","20224521","rare"
"565.1000001430511","false","triangle","80","81,80","hexagon,square,triangle,circle,diamond","C","","","","","test","68","true","1","categorize-html","239","525506","0.0-6.0-136.0","23474","20224521","rare"
"788.5999999046326","false","triangle,hexagon","80","81,80","hexagon,square,triangle,circle,diamond","C","A","","","","test","69","true","1","categorize-html","241","527818","0.0-6.0-138.0","23474","20224521","rare"
"671.5999999046326","false","triangle,square","80","81,80","hexagon,square,triangle,circle,diamond","C","B","","","","test","70","true","1","categorize-html","243","530011","0.0-6.0-140.0","23474","20224521","rare"
"534.0999999046326","false","triangle","80","81,80","hexagon,square,triangle,circle,diamond","C","","","","","test","71","true","1","categorize-html","245","532066","0.0-6.0-142.0","23474","20224521","rare"
"784","false","hexagon","80","81,80","hexagon,square,triangle,circle,diamond","A","","","","","test","72","true","1","categorize-html","247","534374","0.0-6.0-144.0","23474","20224521","rare"
"649.5","false","square","81","81,80","hexagon,square,triangle,circle,diamond","B","","","","","test","73","true","1","categorize-html","250","539484","0.0-6.0-147.0","23474","20224521","common"
"939.1999998092651","false","hexagon,square","81","81,80","hexagon,square,triangle,circle,diamond","A","B","","","","test","74","true","1","categorize-html","252","541953","0.0-6.0-149.0","23474","20224521","common"
"461.60000014305115","false","hexagon","81","81,80","hexagon,square,triangle,circle,diamond","A","","","","","test","75","true","1","categorize-html","254","543925","0.0-6.0-151.0","23474","20224521","common"
"629.9000000953674","false","triangle,square","80","81,80","hexagon,square,triangle,circle,diamond","C","B","","","","test","76","true","1","categorize-html","256","546080","0.0-6.0-153.0","23474","20224521","rare"
"758.2000000476837","false","square","81","81,80","hexagon,square,triangle,circle,diamond","B","","","","","test","77","true","1","categorize-html","258","548354","0.0-6.0-155.0","23474","20224521","common"
"1488.5","false","square,triangle","80","81,80","hexagon,square,triangle,circle,diamond","B","C","","","","test","78","true","1","categorize-html","260","551358","0.0-6.0-157.0","23474","20224521","rare"
"921.3999998569489","false","triangle","80","81,80","hexagon,square,triangle,circle,diamond","C","","","","","test","79","true","1","categorize-html","262","553800","0.0-6.0-159.0","23474","20224521","rare"
"461.60000014305115","false","hexagon","81","81,80","hexagon,square,triangle,circle,diamond","A","","","","","test","80","true","1","categorize-html","264","555781","0.0-6.0-161.0","23474","20224521","common"
"636.9000000953674","false","square,hexagon","81","81,80","hexagon,square,triangle,circle,diamond","B","A","","","","test","81","true","1","categorize-html","266","557947","0.0-6.0-163.0","23474","20224521","common"
"3992.4000000953674","false","triangle,hexagon","80","81,80","hexagon,square,triangle,circle,diamond","C","A","","","","test","82","true","1","categorize-html","268","563448","0.0-6.0-165.0","23474","20224521","rare"
"3717.2000000476837","false","hexagon,triangle","80","81,80","hexagon,square,triangle,circle,diamond","A","C","","","","test","83","true","1","categorize-html","270","568682","0.0-6.0-167.0","23474","20224521","rare"
"1416.6000001430511","false","triangle","81","81,80","hexagon,square,triangle,circle,diamond","C","","","","","test","84","true","1","categorize-html","272","571620","0.0-6.0-169.0","23474","20224521","common"
"850.9000000953674","false","triangle","81","81,80","hexagon,square,triangle,circle,diamond","C","","","","","test","85","true","1","categorize-html","274","573995","0.0-6.0-171.0","23474","20224521","common"
"635.7999999523163","false","hexagon,square","81","81,80","hexagon,square,triangle,circle,diamond","A","B","","","","test","86","true","1","categorize-html","276","576153","0.0-6.0-173.0","23474","20224521","common"
"737.6000001430511","false","triangle","80","81,80","hexagon,square,triangle,circle,diamond","C","","","","","test","87","true","1","categorize-html","278","578417","0.0-6.0-175.0","23474","20224521","rare"
"1202.2000000476837","false","hexagon,triangle","80","81,80","hexagon,square,triangle,circle,diamond","A","C","","","","test","88","true","1","categorize-html","280","581132","0.0-6.0-177.0","23474","20224521","rare"
"1383.7999999523163","false","hexagon","80","81,80","hexagon,square,triangle,circle,diamond","A","","","","","test","89","true","1","categorize-html","282","584029","0.0-6.0-179.0","23474","20224521","rare"
"1443.4000000953674","false","square","81","81,80","hexagon,square,triangle,circle,diamond","B","","","","","test","90","true","1","categorize-html","284","586983","0.0-6.0-181.0","23474","20224521","common"
"2246.7000000476837","false","square,triangle","80","81,80","hexagon,square,triangle,circle,diamond","B","C","","","","test","91","true","1","categorize-html","286","590746","0.0-6.0-183.0","23474","20224521","rare"
"1204.4000000953674","false","triangle,hexagon","80","81,80","hexagon,square,triangle,circle,diamond","C","A","","","","test","92","true","1","categorize-html","288","593470","0.0-6.0-185.0","23474","20224521","rare"
"653","false","square","81","81,80","hexagon,square,triangle,circle,diamond","B","","","","","test","93","true","1","categorize-html","290","595640","0.0-6.0-187.0","23474","20224521","common"
"1274.7000000476837","false","square,hexagon","81","81,80","hexagon,square,triangle,circle,diamond","B","A","","","","test","94","true","1","categorize-html","292","598434","0.0-6.0-189.0","23474","20224521","common"
"1187.1000001430511","false","hexagon","81","81,80","hexagon,square,triangle,circle,diamond","A","","","","","test","95","true","1","categorize-html","294","601147","0.0-6.0-191.0","23474","20224521","common"
"722.7999999523163","false","triangle,square","80","81,80","hexagon,square,triangle,circle,diamond","C","B","","","","test","96","true","1","categorize-html","296","603397","0.0-6.0-193.0","23474","20224521","rare"
"1001.1000001430511","false","hexagon,square","81","81,80","hexagon,square,triangle,circle,diamond","A","B","","","","test","97","true","1","categorize-html","299","607819","0.0-6.0-196.0","23474","20224521","common"
"919.2000000476837","false","triangle,square","80","81,80","hexagon,square,triangle,circle,diamond","C","B","","","","test","98","true","1","categorize-html","301","610265","0.0-6.0-198.0","23474","20224521","rare"
"1938.5","false","square,hexagon","81","81,80","hexagon,square,triangle,circle,diamond","B","A","","","","test","99","true","1","categorize-html","303","613719","0.0-6.0-200.0","23474","20224521","common"
"587.5","false","square","81","81,80","hexagon,square,triangle,circle,diamond","B","","","","","test","100","true","1","categorize-html","305","615830","0.0-6.0-202.0","23474","20224521","common"
"887.2000000476837","false","triangle,hexagon","80","81,80","hexagon,square,triangle,circle,diamond","C","A","","","","test","101","true","1","categorize-html","307","618243","0.0-6.0-204.0","23474","20224521","rare"
"741.7000000476837","false","triangle","80","81,80","hexagon,square,triangle,circle,diamond","C","","","","","test","102","true","1","categorize-html","309","620496","0.0-6.0-206.0","23474","20224521","rare"
"1463.3000001907349","false","square","81","81,80","hexagon,square,triangle,circle,diamond","B","","","","","test","103","true","1","categorize-html","311","623482","0.0-6.0-208.0","23474","20224521","common"
"1128.9000000953674","false","hexagon","81","81,80","hexagon,square,triangle,circle,diamond","A","","","","","test","104","true","1","categorize-html","313","626129","0.0-6.0-210.0","23474","20224521","common"
"769.4000000953674","false","square,triangle","80","81,80","hexagon,square,triangle,circle,diamond","B","C","","","","test","105","true","1","categorize-html","315","628423","0.0-6.0-212.0","23474","20224521","rare"
"590","false","hexagon","81","81,80","hexagon,square,triangle,circle,diamond","A","","","","","test","106","true","1","categorize-html","317","630522","0.0-6.0-214.0","23474","20224521","common"
"592.7000000476837","false","triangle","80","81,80","hexagon,square,triangle,circle,diamond","C","","","","","test","107","true","1","categorize-html","319","632633","0.0-6.0-216.0","23474","20224521","rare"
"801.6000001430511","false","hexagon,triangle","81","81,80","hexagon,square,triangle,circle,diamond","A","C","","","","test","108","true","1","categorize-html","321","634961","0.0-6.0-218.0","23474","20224521","common"
"734.9000000953674","false","triangle","80","81,80","hexagon,square,triangle,circle,diamond","C","","","","","test","109","true","1","categorize-html","323","637216","0.0-6.0-220.0","23474","20224521","rare"
"712.8999998569489","false","square,hexagon","81","81,80","hexagon,square,triangle,circle,diamond","B","A","","","","test","110","true","1","categorize-html","325","639451","0.0-6.0-222.0","23474","20224521","common"
"602.2000000476837","false","triangle,square","80","81,80","hexagon,square,triangle,circle,diamond","C","B","","","","test","111","true","1","categorize-html","327","641584","0.0-6.0-224.0","23474","20224521","rare"
"644","false","square","80","81,80","hexagon,square,triangle,circle,diamond","B","","","","","test","112","true","1","categorize-html","329","643748","0.0-6.0-226.0","23474","20224521","rare"
"574.1000001430511","false","hexagon","81","81,80","hexagon,square,triangle,circle,diamond","A","","","","","test","113","true","1","categorize-html","331","645841","0.0-6.0-228.0","23474","20224521","common"
"607.2999999523163","false","hexagon","81","81,80","hexagon,square,triangle,circle,diamond","A","","","","","test","114","true","1","categorize-html","333","647970","0.0-6.0-230.0","23474","20224521","common"
"544.5","false","hexagon,square","81","81,80","hexagon,square,triangle,circle,diamond","A","B","","","","test","115","true","1","categorize-html","335","650033","0.0-6.0-232.0","23474","20224521","common"
"627.0999999046326","false","square","81","81,80","hexagon,square,triangle,circle,diamond","B","","","","","test","116","true","1","categorize-html","337","652185","0.0-6.0-234.0","23474","20224521","common"
"709","false","square,triangle","80","81,80","hexagon,square,triangle,circle,diamond","B","C","","","","test","117","true","1","categorize-html","339","654427","0.0-6.0-236.0","23474","20224521","rare"
"1233.5","false","triangle,hexagon","80","81,80","hexagon,square,triangle,circle,diamond","C","A","","","","test","118","true","1","categorize-html","341","657186","0.0-6.0-238.0","23474","20224521","rare"
"426.89999985694885","false","triangle","80","81,80","hexagon,square,triangle,circle,diamond","C","","","","","test","119","true","1","categorize-html","343","659145","0.0-6.0-240.0","23474","20224521","rare"
"929.6000001430511","false","hexagon,triangle","80","81,80","hexagon,square,triangle,circle,diamond","A","C","","","","test","120","true","1","categorize-html","345","661602","0.0-6.0-242.0","23474","20224521","rare"
