"rt","correct","stimulus","key_press","keys","symptoms_shuffle","symptom1","symptom2","symptom3","key","category","phase","trial","include","block","trial_type","trial_index","time_elapsed","internal_node_id","ppt","session","abresp"
"3789.600000023842","false","hexagon,square,triangle","32","81,80","square,diamond,hexagon,circle,triangle","C","A","E","80","rare","training","1","true","1","categorize-html","4","42117","0.0-4.0-0.0","24321","20224511","none"
"null","false","diamond,circle,square","null","81,80","square,diamond,hexagon,circle,triangle","B","D","A","81","common","training","2","true","1","categorize-html","6","48159","0.0-4.0-2.0","24321","20224511","none"
"2007.800000011921","false","square,triangle,hexagon","32","81,80","square,diamond,hexagon,circle,triangle","A","E","C","80","rare","training","3","true","1","categorize-html","8","51185","0.0-4.0-4.0","24321","20224511","none"
"1852.4000000059605","false","square,hexagon,triangle","32","81,80","square,diamond,hexagon,circle,triangle","A","C","E","80","rare","training","4","true","1","categorize-html","10","54055","0.0-4.0-6.0","24321","20224511","none"
"2547.0999999940395","false","square,circle,diamond","32","81,80","square,diamond,hexagon,circle,triangle","A","D","B","81","common","training","5","true","1","categorize-html","12","57628","0.0-4.0-8.0","24321","20224511","none"
"2306.800000011921","false","triangle,hexagon,square","32","81,80","square,diamond,hexagon,circle,triangle","E","C","A","80","rare","training","6","true","1","categorize-html","14","60948","0.0-4.0-10.0","24321","20224511","none"
"2266.2999999821186","false","diamond,square,circle","32","81,80","square,diamond,hexagon,circle,triangle","B","A","D","81","common","training","7","true","1","categorize-html","16","64240","0.0-4.0-12.0","24321","20224511","none"
"2708.9000000059605","false","diamond,circle,square","32","81,80","square,diamond,hexagon,circle,triangle","B","D","A","81","common","training","8","true","1","categorize-html","18","67969","0.0-4.0-14.0","24321","20224511","none"
"2186.7999999821186","false","triangle,square,hexagon","32","81,80","square,diamond,hexagon,circle,triangle","E","A","C","80","rare","training","9","true","1","categorize-html","20","71185","0.0-4.0-16.0","24321","20224511","none"
"2364.0999999940395","false","diamond,square,circle","32","81,80","square,diamond,hexagon,circle,triangle","B","A","D","81","common","training","10","true","1","categorize-html","22","74576","0.0-4.0-18.0","24321","20224511","none"
"1558.5999999940395","false","square,diamond,circle","32","81,80","square,diamond,hexagon,circle,triangle","A","B","D","81","common","training","11","true","1","categorize-html","24","77153","0.0-4.0-20.0","24321","20224511","none"
"1676.199999988079","false","circle,diamond,square","32","81,80","square,diamond,hexagon,circle,triangle","D","B","A","81","common","training","12","true","1","categorize-html","26","79856","0.0-4.0-22.0","24321","20224511","none"
"1915.800000011921","false","circle,square,diamond","32","81,80","square,diamond,hexagon,circle,triangle","D","A","B","81","common","training","13","true","1","categorize-html","28","82793","0.0-4.0-24.0","24321","20224511","none"
"1492.2999999821186","false","hexagon,triangle,square","32","81,80","square,diamond,hexagon,circle,triangle","C","E","A","80","rare","training","14","true","1","categorize-html","30","85311","0.0-4.0-26.0","24321","20224511","none"
"1414","false","circle,diamond,square","32","81,80","square,diamond,hexagon,circle,triangle","D","B","A","81","common","training","15","true","1","categorize-html","32","87748","0.0-4.0-28.0","24321","20224511","none"
"1551.300000011921","false","diamond,square,circle","32","81,80","square,diamond,hexagon,circle,triangle","B","A","D","81","common","training","16","true","1","categorize-html","34","90322","0.0-4.0-30.0","24321","20224511","none"
"1796.0999999940395","false","square,diamond,circle","32","81,80","square,diamond,hexagon,circle,triangle","A","B","D","81","common","training","17","true","1","categorize-html","36","93133","0.0-4.0-32.0","24321","20224511","none"
"2004.800000011921","false","circle,square,diamond","32","81,80","square,diamond,hexagon,circle,triangle","D","A","B","81","common","training","18","true","1","categorize-html","38","96164","0.0-4.0-34.0","24321","20224511","none"
"2129.2999999821186","false","square,circle,diamond","32","81,80","square,diamond,hexagon,circle,triangle","A","D","B","81","common","training","19","true","1","categorize-html","40","99316","0.0-4.0-36.0","24321","20224511","none"
"1426.5","false","square,diamond,circle","32","81,80","square,diamond,hexagon,circle,triangle","A","B","D","81","common","training","20","true","1","categorize-html","42","101758","0.0-4.0-38.0","24321","20224511","none"
"1214.800000011921","false","circle,square,diamond","32","81,80","square,diamond,hexagon,circle,triangle","D","A","B","81","common","training","21","true","1","categorize-html","44","103994","0.0-4.0-40.0","24321","20224511","none"
"1197.2000000178814","false","diamond,circle,square","32","81,80","square,diamond,hexagon,circle,triangle","B","D","A","81","common","training","22","true","1","categorize-html","46","106213","0.0-4.0-42.0","24321","20224511","none"
"609","false","square,circle,diamond","32","81,80","square,diamond,hexagon,circle,triangle","A","D","B","81","common","training","23","true","1","categorize-html","48","107841","0.0-4.0-44.0","24321","20224511","none"
"1513.699999988079","false","circle,diamond,square","32","81,80","square,diamond,hexagon,circle,triangle","D","B","A","81","common","training","24","true","1","categorize-html","50","110375","0.0-4.0-46.0","24321","20224511","none"
"4758.600000023842","false","square","81","81,80","square,diamond,hexagon,circle,triangle","A","","","","","test","1","true","1","categorize-html","54","147163","0.0-6.0-0.0","24321","20224511","common"
"6402.899999976158","false","diamond,hexagon","80","81,80","square,diamond,hexagon,circle,triangle","B","C","","","","test","2","true","1","categorize-html","56","155083","0.0-6.0-2.0","24321","20224511","rare"
"2056.0999999940395","false","diamond","81","81,80","square,diamond,hexagon,circle,triangle","B","","","","","test","3","true","1","categorize-html","58","158665","0.0-6.0-4.0","24321","20224511","common"
"2147","false","hexagon","80","81,80","square,diamond,hexagon,circle,triangle","C","","","","","test","4","true","1","categorize-html","60","162333","0.0-6.0-6.0","24321","20224511","rare"
"4136.4000000059605","false","hexagon,diamond","81","81,80","square,diamond,hexagon,circle,triangle","C","B","","","","test","5","true","1","categorize-html","62","167989","0.0-6.0-8.0","24321","20224511","common"
"1933.199999988079","false","hexagon,square","81","81,80","square,diamond,hexagon,circle,triangle","C","A","","","","test","6","true","1","categorize-html","64","171450","0.0-6.0-10.0","24321","20224511","common"
"2513.5999999940395","false","square","81","81,80","square,diamond,hexagon,circle,triangle","A","","","","","test","7","true","1","categorize-html","66","175490","0.0-6.0-12.0","24321","20224511","common"
"1353.699999988079","false","hexagon","81","81,80","square,diamond,hexagon,circle,triangle","C","","","","","test","8","true","1","categorize-html","68","178364","0.0-6.0-14.0","24321","20224511","common"
"2186","false","square,hexagon","80","81,80","square,diamond,hexagon,circle,triangle","A","C","","","","test","9","true","1","categorize-html","70","182073","0.0-6.0-16.0","24321","20224511","rare"
"2466.800000011921","false","diamond","81","81,80","square,diamond,hexagon,circle,triangle","B","","","","","test","10","true","1","categorize-html","72","186064","0.0-6.0-18.0","24321","20224511","common"
"2644.4000000059605","false","square,diamond","81","81,80","square,diamond,hexagon,circle,triangle","A","B","","","","test","11","true","1","categorize-html","74","190225","0.0-6.0-20.0","24321","20224511","common"
"1370.5999999940395","false","diamond,square","81","81,80","square,diamond,hexagon,circle,triangle","B","A","","","","test","12","true","1","categorize-html","76","193122","0.0-6.0-22.0","24321","20224511","common"
"1100.7999999821186","false","square,diamond","81","81,80","square,diamond,hexagon,circle,triangle","A","B","","","","test","13","true","1","categorize-html","78","195742","0.0-6.0-24.0","24321","20224511","common"
"2206.5","false","square","80","81,80","square,diamond,hexagon,circle,triangle","A","","","","","test","14","true","1","categorize-html","80","199465","0.0-6.0-26.0","24321","20224511","rare"
"3725.9000000059605","false","square,hexagon","81","81,80","square,diamond,hexagon,circle,triangle","A","C","","","","test","15","true","1","categorize-html","82","204715","0.0-6.0-28.0","24321","20224511","common"
"1587.699999988079","false","hexagon","81","81,80","square,diamond,hexagon,circle,triangle","C","","","","","test","16","true","1","categorize-html","84","207821","0.0-6.0-30.0","24321","20224511","common"
"1894.9000000059605","false","diamond,square","81","81,80","square,diamond,hexagon,circle,triangle","B","A","","","","test","17","true","1","categorize-html","86","211235","0.0-6.0-32.0","24321","20224511","common"
"1345.9000000059605","false","hexagon","80","81,80","square,diamond,hexagon,circle,triangle","C","","","","","test","18","true","1","categorize-html","88","214108","0.0-6.0-34.0","24321","20224511","rare"
"3361.5","false","hexagon,diamond","81","81,80","square,diamond,hexagon,circle,triangle","C","B","","","","test","19","true","1","categorize-html","90","218986","0.0-6.0-36.0","24321","20224511","common"
"1192.9000000059605","false","diamond","81","81,80","square,diamond,hexagon,circle,triangle","B","","","","","test","20","true","1","categorize-html","92","221695","0.0-6.0-38.0","24321","20224511","common"
"1020.4000000059605","false","diamond,hexagon","81","81,80","square,diamond,hexagon,circle,triangle","B","C","","","","test","21","true","1","categorize-html","94","224244","0.0-6.0-40.0","24321","20224511","common"
"1047.4000000059605","false","square","80","81,80","square,diamond,hexagon,circle,triangle","A","","","","","test","22","true","1","categorize-html","96","226813","0.0-6.0-42.0","24321","20224511","rare"
"959.5","false","hexagon,square","80","81,80","square,diamond,hexagon,circle,triangle","C","A","","","","test","23","true","1","categorize-html","98","229297","0.0-6.0-44.0","24321","20224511","rare"
"843.4000000059605","false","diamond","81","81,80","square,diamond,hexagon,circle,triangle","B","","","","","test","24","true","1","categorize-html","100","231659","0.0-6.0-46.0","24321","20224511","common"
"796.5","false","hexagon,square","80","81,80","square,diamond,hexagon,circle,triangle","C","A","","","","test","25","true","1","categorize-html","103","236506","0.0-6.0-49.0","24321","20224511","rare"
"193.80000001192093","false","hexagon,diamond","80","81,80","square,diamond,hexagon,circle,triangle","C","B","","","","test","26","true","1","categorize-html","105","238230","0.0-6.0-51.0","24321","20224511","rare"
"255.39999997615814","false","square,hexagon","81","81,80","square,diamond,hexagon,circle,triangle","A","C","","","","test","27","true","1","categorize-html","107","240001","0.0-6.0-53.0","24321","20224511","common"
"353.7000000178814","false","hexagon","81","81,80","square,diamond,hexagon,circle,triangle","C","","","","","test","28","true","1","categorize-html","109","241886","0.0-6.0-55.0","24321","20224511","common"
"464","false","diamond,hexagon","81","81,80","square,diamond,hexagon,circle,triangle","B","C","","","","test","29","true","1","categorize-html","111","243875","0.0-6.0-57.0","24321","20224511","common"
"1194.3999999761581","false","square","80","81,80","square,diamond,hexagon,circle,triangle","A","","","","","test","30","true","1","categorize-html","113","246594","0.0-6.0-59.0","24321","20224511","rare"
"921.6000000238419","false","diamond","81","81,80","square,diamond,hexagon,circle,triangle","B","","","","","test","31","true","1","categorize-html","115","249032","0.0-6.0-61.0","24321","20224511","common"
"1500.5","false","square,diamond","81","81,80","square,diamond,hexagon,circle,triangle","A","B","","","","test","32","true","1","categorize-html","117","252062","0.0-6.0-63.0","24321","20224511","common"
"2807.5","false","hexagon","81","81,80","square,diamond,hexagon,circle,triangle","C","","","","","test","33","true","1","categorize-html","119","256392","0.0-6.0-65.0","24321","20224511","common"
"1196.699999988079","false","square","80","81,80","square,diamond,hexagon,circle,triangle","A","","","","","test","34","true","1","categorize-html","121","259112","0.0-6.0-67.0","24321","20224511","rare"
"1084.199999988079","false","diamond","81","81,80","square,diamond,hexagon,circle,triangle","B","","","","","test","35","true","1","categorize-html","123","261718","0.0-6.0-69.0","24321","20224511","common"
"787.4000000059605","false","diamond,square","80","81,80","square,diamond,hexagon,circle,triangle","B","A","","","","test","36","true","1","categorize-html","125","264034","0.0-6.0-71.0","24321","20224511","rare"
"1042.800000011921","false","diamond","81","81,80","square,diamond,hexagon,circle,triangle","B","","","","","test","37","true","1","categorize-html","127","266601","0.0-6.0-73.0","24321","20224511","common"
"1043.2999999821186","false","square,hexagon","81","81,80","square,diamond,hexagon,circle,triangle","A","C","","","","test","38","true","1","categorize-html","129","269165","0.0-6.0-75.0","24321","20224511","common"
"1088.0999999940395","false","square,diamond","81","81,80","square,diamond,hexagon,circle,triangle","A","B","","","","test","39","true","1","categorize-html","131","271771","0.0-6.0-77.0","24321","20224511","common"
"1682.2999999821186","false","square","80","81,80","square,diamond,hexagon,circle,triangle","A","","","","","test","40","true","1","categorize-html","133","274969","0.0-6.0-79.0","24321","20224511","rare"
"5013","false","hexagon","81","81,80","square,diamond,hexagon,circle,triangle","C","","","","","test","41","true","1","categorize-html","135","281504","0.0-6.0-81.0","24321","20224511","common"
"3405","false","square","81","81,80","square,diamond,hexagon,circle,triangle","A","","","","","test","42","true","1","categorize-html","137","286438","0.0-6.0-83.0","24321","20224511","common"
"3077","false","diamond,hexagon","81","81,80","square,diamond,hexagon,circle,triangle","B","C","","","","test","43","true","1","categorize-html","139","291037","0.0-6.0-85.0","24321","20224511","common"
"3045.4000000059605","false","hexagon,diamond","81","81,80","square,diamond,hexagon,circle,triangle","C","B","","","","test","44","true","1","categorize-html","141","295600","0.0-6.0-87.0","24321","20224511","common"
"1923.199999988079","false","hexagon","81","81,80","square,diamond,hexagon,circle,triangle","C","","","","","test","45","true","1","categorize-html","143","299048","0.0-6.0-89.0","24321","20224511","common"
"942.3000000119209","false","diamond,square","81","81,80","square,diamond,hexagon,circle,triangle","B","A","","","","test","46","true","1","categorize-html","145","301502","0.0-6.0-91.0","24321","20224511","common"
"1004.2999999821186","false","hexagon,square","80","81,80","square,diamond,hexagon,circle,triangle","C","A","","","","test","47","true","1","categorize-html","147","304034","0.0-6.0-93.0","24321","20224511","rare"
"4452.5","false","diamond","80","81,80","square,diamond,hexagon,circle,triangle","B","","","","","test","48","true","1","categorize-html","149","310006","0.0-6.0-95.0","24321","20224511","rare"
"1487.9000000059605","false","square,hexagon","80","81,80","square,diamond,hexagon,circle,triangle","A","C","","","","test","49","true","1","categorize-html","152","314746","0.0-6.0-98.0","24321","20224511","rare"
"320.7000000178814","false","hexagon","81","81,80","square,diamond,hexagon,circle,triangle","C","","","","","test","50","true","1","categorize-html","154","316596","0.0-6.0-100.0","24321","20224511","common"
"368.59999999403954","false","diamond,hexagon","81","81,80","square,diamond,hexagon,circle,triangle","B","C","","","","test","51","true","1","categorize-html","156","318489","0.0-6.0-102.0","24321","20224511","common"
"72.5","false","hexagon,square","80","81,80","square,diamond,hexagon,circle,triangle","C","A","","","","test","52","true","1","categorize-html","158","320090","0.0-6.0-104.0","24321","20224511","rare"
"633.5","false","hexagon","80","81,80","square,diamond,hexagon,circle,triangle","C","","","","","test","53","true","1","categorize-html","160","322251","0.0-6.0-106.0","24321","20224511","rare"
"777.1999999880791","false","square","80","81,80","square,diamond,hexagon,circle,triangle","A","","","","","test","54","true","1","categorize-html","162","324546","0.0-6.0-108.0","24321","20224511","rare"
"287.80000001192093","false","square,diamond","81","81,80","square,diamond,hexagon,circle,triangle","A","B","","","","test","55","true","1","categorize-html","164","326356","0.0-6.0-110.0","24321","20224511","common"
"927.8000000119209","false","diamond","81","81,80","square,diamond,hexagon,circle,triangle","B","","","","","test","56","true","1","categorize-html","166","328811","0.0-6.0-112.0","24321","20224511","common"
"370.5","false","diamond","81","81,80","square,diamond,hexagon,circle,triangle","B","","","","","test","57","true","1","categorize-html","168","330709","0.0-6.0-114.0","24321","20224511","common"
"454.40000000596046","false","hexagon,diamond","80","81,80","square,diamond,hexagon,circle,triangle","C","B","","","","test","58","true","1","categorize-html","170","332685","0.0-6.0-116.0","24321","20224511","rare"
"326.59999999403954","false","square","81","81,80","square,diamond,hexagon,circle,triangle","A","","","","","test","59","true","1","categorize-html","172","334537","0.0-6.0-118.0","24321","20224511","common"
"353.5","false","diamond,square","80","81,80","square,diamond,hexagon,circle,triangle","B","A","","","","test","60","true","1","categorize-html","174","336419","0.0-6.0-120.0","24321","20224511","rare"
"271.09999999403954","false","diamond,hexagon","81","81,80","square,diamond,hexagon,circle,triangle","B","C","","","","test","61","true","1","categorize-html","176","338220","0.0-6.0-122.0","24321","20224511","common"
"254.40000000596046","false","diamond","80","81,80","square,diamond,hexagon,circle,triangle","B","","","","","test","62","true","1","categorize-html","178","339996","0.0-6.0-124.0","24321","20224511","rare"
"255.19999998807907","false","hexagon","81","81,80","square,diamond,hexagon,circle,triangle","C","","","","","test","63","true","1","categorize-html","180","341769","0.0-6.0-126.0","24321","20224511","common"
"308.80000001192093","false","diamond","80","81,80","square,diamond,hexagon,circle,triangle","B","","","","","test","64","true","1","categorize-html","182","343600","0.0-6.0-128.0","24321","20224511","rare"
"342.80000001192093","false","hexagon,square","80","81,80","square,diamond,hexagon,circle,triangle","C","A","","","","test","65","true","1","categorize-html","184","345464","0.0-6.0-130.0","24321","20224511","rare"
"276.19999998807907","false","diamond,square","81","81,80","square,diamond,hexagon,circle,triangle","B","A","","","","test","66","true","1","categorize-html","186","347264","0.0-6.0-132.0","24321","20224511","common"
"355","false","square","80","81,80","square,diamond,hexagon,circle,triangle","A","","","","","test","67","true","1","categorize-html","188","349145","0.0-6.0-134.0","24321","20224511","rare"
"322.80000001192093","false","square","80","81,80","square,diamond,hexagon,circle,triangle","A","","","","","test","68","true","1","categorize-html","190","350989","0.0-6.0-136.0","24321","20224511","rare"
"381","false","hexagon,diamond","81","81,80","square,diamond,hexagon,circle,triangle","C","B","","","","test","69","true","1","categorize-html","192","352902","0.0-6.0-138.0","24321","20224511","common"
"440.30000001192093","false","square,diamond","81","81,80","square,diamond,hexagon,circle,triangle","A","B","","","","test","70","true","1","categorize-html","194","354858","0.0-6.0-140.0","24321","20224511","common"
"468.2999999821186","false","hexagon","80","81,80","square,diamond,hexagon,circle,triangle","C","","","","","test","71","true","1","categorize-html","196","356845","0.0-6.0-142.0","24321","20224511","rare"
"845","false","square,hexagon","80","81,80","square,diamond,hexagon,circle,triangle","A","C","","","","test","72","true","1","categorize-html","198","359210","0.0-6.0-144.0","24321","20224511","rare"
"1286.5999999940395","false","square,hexagon","80","81,80","square,diamond,hexagon,circle,triangle","A","C","","","","test","73","true","1","categorize-html","201","363266","0.0-6.0-147.0","24321","20224511","rare"
"504.5","false","hexagon","81","81,80","square,diamond,hexagon,circle,triangle","C","","","","","test","74","true","1","categorize-html","203","365288","0.0-6.0-149.0","24321","20224511","common"
"1063.7999999821186","false","hexagon,diamond","81","81,80","square,diamond,hexagon,circle,triangle","C","B","","","","test","75","true","1","categorize-html","205","367865","0.0-6.0-151.0","24321","20224511","common"
"908.7999999821186","false","square","80","81,80","square,diamond,hexagon,circle,triangle","A","","","","","test","76","true","1","categorize-html","207","370297","0.0-6.0-153.0","24321","20224511","rare"
"705.2999999821186","false","diamond","81","81,80","square,diamond,hexagon,circle,triangle","B","","","","","test","77","true","1","categorize-html","209","372533","0.0-6.0-155.0","24321","20224511","common"
"882.0999999940395","false","diamond,square","81","81,80","square,diamond,hexagon,circle,triangle","B","A","","","","test","78","true","1","categorize-html","211","374940","0.0-6.0-157.0","24321","20224511","common"
"583.0999999940395","false","diamond,hexagon","81","81,80","square,diamond,hexagon,circle,triangle","B","C","","","","test","79","true","1","categorize-html","213","377039","0.0-6.0-159.0","24321","20224511","common"
"767.3000000119209","false","square","80","81,80","square,diamond,hexagon,circle,triangle","A","","","","","test","80","true","1","categorize-html","215","379321","0.0-6.0-161.0","24321","20224511","rare"
"1360.4000000059605","false","square,diamond","81","81,80","square,diamond,hexagon,circle,triangle","A","B","","","","test","81","true","1","categorize-html","217","382210","0.0-6.0-163.0","24321","20224511","common"
"1026.4000000059605","false","diamond","81","81,80","square,diamond,hexagon,circle,triangle","B","","","","","test","82","true","1","categorize-html","219","384761","0.0-6.0-165.0","24321","20224511","common"
"1010.3000000119209","false","hexagon","81","81,80","square,diamond,hexagon,circle,triangle","C","","","","","test","83","true","1","categorize-html","221","387296","0.0-6.0-167.0","24321","20224511","common"
"572.2999999821186","false","hexagon,square","80","81,80","square,diamond,hexagon,circle,triangle","C","A","","","","test","84","true","1","categorize-html","223","389390","0.0-6.0-169.0","24321","20224511","rare"
"797.3000000119209","false","square","81","81,80","square,diamond,hexagon,circle,triangle","A","","","","","test","85","true","1","categorize-html","225","391709","0.0-6.0-171.0","24321","20224511","common"
"529","false","diamond,square","81","81,80","square,diamond,hexagon,circle,triangle","B","A","","","","test","86","true","1","categorize-html","227","393762","0.0-6.0-173.0","24321","20224511","common"
"708.9000000059605","false","hexagon","80","81,80","square,diamond,hexagon,circle,triangle","C","","","","","test","87","true","1","categorize-html","229","395998","0.0-6.0-175.0","24321","20224511","rare"
"661.4000000059605","false","diamond","81","81,80","square,diamond,hexagon,circle,triangle","B","","","","","test","88","true","1","categorize-html","231","398187","0.0-6.0-177.0","24321","20224511","common"
"337.10000002384186","false","square","80","81,80","square,diamond,hexagon,circle,triangle","A","","","","","test","89","true","1","categorize-html","233","400051","0.0-6.0-179.0","24321","20224511","rare"
"449.60000002384186","false","hexagon","81","81,80","square,diamond,hexagon,circle,triangle","C","","","","","test","90","true","1","categorize-html","235","402023","0.0-6.0-181.0","24321","20224511","common"
"1780.9000000059605","false","hexagon,square","80","81,80","square,diamond,hexagon,circle,triangle","C","A","","","","test","91","true","1","categorize-html","237","405332","0.0-6.0-183.0","24321","20224511","rare"
"622.5","false","diamond","81","81,80","square,diamond,hexagon,circle,triangle","B","","","","","test","92","true","1","categorize-html","239","407474","0.0-6.0-185.0","24321","20224511","common"
"961.6999999880791","false","hexagon,diamond","81","81,80","square,diamond,hexagon,circle,triangle","C","B","","","","test","93","true","1","categorize-html","241","409965","0.0-6.0-187.0","24321","20224511","common"
"1039","false","diamond,hexagon","81","81,80","square,diamond,hexagon,circle,triangle","B","C","","","","test","94","true","1","categorize-html","243","412531","0.0-6.0-189.0","24321","20224511","common"
"746.4000000059605","false","square,diamond","81","81,80","square,diamond,hexagon,circle,triangle","A","B","","","","test","95","true","1","categorize-html","245","414800","0.0-6.0-191.0","24321","20224511","common"
"1101.3999999761581","false","square,hexagon","80","81,80","square,diamond,hexagon,circle,triangle","A","C","","","","test","96","true","1","categorize-html","247","417424","0.0-6.0-193.0","24321","20224511","rare"
"725.9000000059605","false","diamond,square","81","81,80","square,diamond,hexagon,circle,triangle","B","A","","","","test","97","true","1","categorize-html","250","420825","0.0-6.0-196.0","24321","20224511","common"
"562","false","hexagon","80","81,80","square,diamond,hexagon,circle,triangle","C","","","","","test","98","true","1","categorize-html","252","422905","0.0-6.0-198.0","24321","20224511","rare"
"473","false","hexagon","80","81,80","square,diamond,hexagon,circle,triangle","C","","","","","test","99","true","1","categorize-html","254","424896","0.0-6.0-200.0","24321","20224511","rare"
"883.5","false","square","81","81,80","square,diamond,hexagon,circle,triangle","A","","","","","test","100","true","1","categorize-html","256","427304","0.0-6.0-202.0","24321","20224511","common"
"1246.5999999940395","false","diamond,hexagon","80","81,80","square,diamond,hexagon,circle,triangle","B","C","","","","test","101","true","1","categorize-html","258","430068","0.0-6.0-204.0","24321","20224511","rare"
"600.5","false","diamond","81","81,80","square,diamond,hexagon,circle,triangle","B","","","","","test","102","true","1","categorize-html","260","432197","0.0-6.0-206.0","24321","20224511","common"
"1124.0999999940395","false","hexagon,diamond","81","81,80","square,diamond,hexagon,circle,triangle","C","B","","","","test","103","true","1","categorize-html","262","434840","0.0-6.0-208.0","24321","20224511","common"
"658.0999999940395","false","square","80","81,80","square,diamond,hexagon,circle,triangle","A","","","","","test","104","true","1","categorize-html","264","437017","0.0-6.0-210.0","24321","20224511","rare"
"786.5","false","square,hexagon","80","81,80","square,diamond,hexagon,circle,triangle","A","C","","","","test","105","true","1","categorize-html","266","439319","0.0-6.0-212.0","24321","20224511","rare"
"803.0999999940395","false","hexagon,square","80","81,80","square,diamond,hexagon,circle,triangle","C","A","","","","test","106","true","1","categorize-html","268","441651","0.0-6.0-214.0","24321","20224511","rare"
"792.8000000119209","false","square,diamond","81","81,80","square,diamond,hexagon,circle,triangle","A","B","","","","test","107","true","1","categorize-html","270","443965","0.0-6.0-216.0","24321","20224511","common"
"665.6000000238419","false","diamond","81","81,80","square,diamond,hexagon,circle,triangle","B","","","","","test","108","true","1","categorize-html","272","446154","0.0-6.0-218.0","24321","20224511","common"
"3369.399999976158","false","hexagon,diamond","81","81,80","square,diamond,hexagon,circle,triangle","C","B","","","","test","109","true","1","categorize-html","274","451043","0.0-6.0-220.0","24321","20224511","common"
"2751.899999976158","false","diamond","81","81,80","square,diamond,hexagon,circle,triangle","B","","","","","test","110","true","1","categorize-html","276","455314","0.0-6.0-222.0","24321","20224511","common"
"2913.0999999940395","false","hexagon,square","80","81,80","square,diamond,hexagon,circle,triangle","C","A","","","","test","111","true","1","categorize-html","278","459743","0.0-6.0-224.0","24321","20224511","rare"
"2220","false","square,hexagon","80","81,80","square,diamond,hexagon,circle,triangle","A","C","","","","test","112","true","1","categorize-html","280","463483","0.0-6.0-226.0","24321","20224511","rare"
"1497.199999988079","false","square,diamond","81","81,80","square,diamond,hexagon,circle,triangle","A","B","","","","test","113","true","1","categorize-html","282","466509","0.0-6.0-228.0","24321","20224511","common"
"2416.0999999940395","false","square","80","81,80","square,diamond,hexagon,circle,triangle","A","","","","","test","114","true","1","categorize-html","284","470456","0.0-6.0-230.0","24321","20224511","rare"
"2193.5","false","diamond","80","81,80","square,diamond,hexagon,circle,triangle","B","","","","","test","115","true","1","categorize-html","286","474171","0.0-6.0-232.0","24321","20224511","rare"
"1032.9000000059605","false","diamond,square","81","81,80","square,diamond,hexagon,circle,triangle","B","A","","","","test","116","true","1","categorize-html","288","476732","0.0-6.0-234.0","24321","20224511","common"
"1777.699999988079","false","hexagon","81","81,80","square,diamond,hexagon,circle,triangle","C","","","","","test","117","true","1","categorize-html","290","480029","0.0-6.0-236.0","24321","20224511","common"
"894.9000000059605","false","square","80","81,80","square,diamond,hexagon,circle,triangle","A","","","","","test","118","true","1","categorize-html","292","482450","0.0-6.0-238.0","24321","20224511","rare"
"712.6999999880791","false","diamond,hexagon","81","81,80","square,diamond,hexagon,circle,triangle","B","C","","","","test","119","true","1","categorize-html","294","484681","0.0-6.0-240.0","24321","20224511","common"
"1875.3999999761581","false","hexagon","80","81,80","square,diamond,hexagon,circle,triangle","C","","","","","test","120","true","1","categorize-html","296","488087","0.0-6.0-242.0","24321","20224511","rare"
