"rt","correct","stimulus","key_press","keys","symptoms_shuffle","symptom1","symptom2","symptom3","key","category","phase","trial","include","block","trial_type","trial_index","time_elapsed","internal_node_id","ppt","session","abresp"
"null","false","triangle,circle,hexagon","null","81,80","hexagon,triangle,diamond,circle,square","B","D","A","81","common","training","1","true","1","categorize-html","4","32493","0.0-4.0-0.0","24125","20224112","none"
"2840.5","false","hexagon,triangle,circle","32","81,80","hexagon,triangle,diamond,circle,square","A","B","D","81","common","training","2","true","1","categorize-html","6","36366","0.0-4.0-2.0","24125","20224112","none"
"10.200000762939453","false","diamond,hexagon,square","32","81,80","hexagon,triangle,diamond,circle,square","C","A","E","80","rare","training","3","true","1","categorize-html","8","37416","0.0-4.0-4.0","24125","20224112","none"
"2747.3999996185303","false","hexagon,square,diamond","32","81,80","hexagon,triangle,diamond,circle,square","A","E","C","80","rare","training","4","true","1","categorize-html","10","41181","0.0-4.0-6.0","24125","20224112","none"
"1455.3000011444092","false","hexagon,triangle,circle","32","81,80","hexagon,triangle,diamond,circle,square","A","B","D","81","common","training","5","true","1","categorize-html","12","43653","0.0-4.0-8.0","24125","20224112","none"
"1017.2999992370605","false","hexagon,circle,triangle","32","81,80","hexagon,triangle,diamond,circle,square","A","D","B","81","common","training","6","true","1","categorize-html","14","45686","0.0-4.0-10.0","24125","20224112","none"
"736.3999996185303","false","triangle,hexagon,circle","32","81,80","hexagon,triangle,diamond,circle,square","B","A","D","81","common","training","7","true","1","categorize-html","16","47456","0.0-4.0-12.0","24125","20224112","none"
"399.70000076293945","false","hexagon,triangle,circle","32","81,80","hexagon,triangle,diamond,circle,square","A","B","D","81","common","training","8","true","1","categorize-html","18","48880","0.0-4.0-14.0","24125","20224112","none"
"480.1000003814697","false","circle,triangle,hexagon","32","81,80","hexagon,triangle,diamond,circle,square","D","B","A","81","common","training","9","true","1","categorize-html","20","50379","0.0-4.0-16.0","24125","20224112","none"
"394.6000003814697","false","triangle,circle,hexagon","32","81,80","hexagon,triangle,diamond,circle,square","B","D","A","81","common","training","10","true","1","categorize-html","22","51796","0.0-4.0-18.0","24125","20224112","none"
"395.6999988555908","false","hexagon,circle,triangle","32","81,80","hexagon,triangle,diamond,circle,square","A","D","B","81","common","training","11","true","1","categorize-html","24","53215","0.0-4.0-20.0","24125","20224112","none"
"355.8000011444092","false","square,diamond,hexagon","32","81,80","hexagon,triangle,diamond,circle,square","E","C","A","80","rare","training","12","true","1","categorize-html","26","54586","0.0-4.0-22.0","24125","20224112","none"
"381.70000076293945","false","circle,hexagon,triangle","32","81,80","hexagon,triangle,diamond,circle,square","D","A","B","81","common","training","13","true","1","categorize-html","28","55978","0.0-4.0-24.0","24125","20224112","none"
"285.6000003814697","false","circle,triangle,hexagon","32","81,80","hexagon,triangle,diamond,circle,square","D","B","A","81","common","training","14","true","1","categorize-html","30","57279","0.0-4.0-26.0","24125","20224112","none"
"310.20000076293945","false","square,hexagon,diamond","32","81,80","hexagon,triangle,diamond,circle,square","E","A","C","80","rare","training","15","true","1","categorize-html","32","58612","0.0-4.0-28.0","24125","20224112","none"
"291","false","triangle,circle,hexagon","32","81,80","hexagon,triangle,diamond,circle,square","B","D","A","81","common","training","16","true","1","categorize-html","34","59931","0.0-4.0-30.0","24125","20224112","none"
"315.29999923706055","false","triangle,hexagon,circle","32","81,80","hexagon,triangle,diamond,circle,square","B","A","D","81","common","training","17","true","1","categorize-html","36","61257","0.0-4.0-32.0","24125","20224112","none"
"304.0999984741211","false","triangle,hexagon,circle","32","81,80","hexagon,triangle,diamond,circle,square","B","A","D","81","common","training","18","true","1","categorize-html","38","62589","0.0-4.0-34.0","24125","20224112","none"
"302.6999988555908","false","circle,hexagon,triangle","32","81,80","hexagon,triangle,diamond,circle,square","D","A","B","81","common","training","19","true","1","categorize-html","40","63903","0.0-4.0-36.0","24125","20224112","none"
"365.8000011444092","false","hexagon,circle,triangle","32","81,80","hexagon,triangle,diamond,circle,square","A","D","B","81","common","training","20","true","1","categorize-html","42","65277","0.0-4.0-38.0","24125","20224112","none"
"271.20000076293945","false","diamond,square,hexagon","32","81,80","hexagon,triangle,diamond,circle,square","C","E","A","80","rare","training","21","true","1","categorize-html","44","66561","0.0-4.0-40.0","24125","20224112","none"
"340","false","circle,hexagon,triangle","32","81,80","hexagon,triangle,diamond,circle,square","D","A","B","81","common","training","22","true","1","categorize-html","46","67915","0.0-4.0-42.0","24125","20224112","none"
"281.79999923706055","false","hexagon,diamond,square","32","81,80","hexagon,triangle,diamond,circle,square","A","C","E","80","rare","training","23","true","1","categorize-html","48","69203","0.0-4.0-44.0","24125","20224112","none"
"284.0999984741211","false","circle,triangle,hexagon","32","81,80","hexagon,triangle,diamond,circle,square","D","B","A","81","common","training","24","true","1","categorize-html","50","70506","0.0-4.0-46.0","24125","20224112","none"
"6273","false","diamond","80","81,80","hexagon,triangle,diamond,circle,square","C","","","","","test","1","true","1","categorize-html","54","105797","0.0-6.0-0.0","24125","20224112","rare"
"3500.199998855591","false","hexagon","80","81,80","hexagon,triangle,diamond,circle,square","A","","","","","test","2","true","1","categorize-html","56","110817","0.0-6.0-2.0","24125","20224112","rare"
"1476.7000007629395","false","triangle,hexagon","81","81,80","hexagon,triangle,diamond,circle,square","B","A","","","","test","3","true","1","categorize-html","58","113807","0.0-6.0-4.0","24125","20224112","common"
"956.3999996185303","false","diamond,triangle","81","81,80","hexagon,triangle,diamond,circle,square","C","B","","","","test","4","true","1","categorize-html","60","116286","0.0-6.0-6.0","24125","20224112","common"
"2952","false","diamond","80","81,80","hexagon,triangle,diamond,circle,square","C","","","","","test","5","true","1","categorize-html","62","120768","0.0-6.0-8.0","24125","20224112","rare"
"773.6000003814697","false","hexagon","81","81,80","hexagon,triangle,diamond,circle,square","A","","","","","test","6","true","1","categorize-html","64","123055","0.0-6.0-10.0","24125","20224112","common"
"1158.6999988555908","false","hexagon,triangle","81","81,80","hexagon,triangle,diamond,circle,square","A","B","","","","test","7","true","1","categorize-html","66","125733","0.0-6.0-12.0","24125","20224112","common"
"1059.6000003814697","false","hexagon,diamond","80","81,80","hexagon,triangle,diamond,circle,square","A","C","","","","test","8","true","1","categorize-html","68","128319","0.0-6.0-14.0","24125","20224112","rare"
"518.7000007629395","false","diamond,hexagon","81","81,80","hexagon,triangle,diamond,circle,square","C","A","","","","test","9","true","1","categorize-html","70","130352","0.0-6.0-16.0","24125","20224112","common"
"375.79999923706055","false","triangle,diamond","80","81,80","hexagon,triangle,diamond,circle,square","B","C","","","","test","10","true","1","categorize-html","72","132255","0.0-6.0-18.0","24125","20224112","rare"
"193.20000076293945","false","triangle","80","81,80","hexagon,triangle,diamond,circle,square","B","","","","","test","11","true","1","categorize-html","74","133974","0.0-6.0-20.0","24125","20224112","rare"
"1112.3999996185303","false","triangle","81","81,80","hexagon,triangle,diamond,circle,square","B","","","","","test","12","true","1","categorize-html","76","136604","0.0-6.0-22.0","24125","20224112","common"
"1112","false","hexagon","80","81,80","hexagon,triangle,diamond,circle,square","A","","","","","test","13","true","1","categorize-html","78","139242","0.0-6.0-24.0","24125","20224112","rare"
"328.29999923706055","false","triangle,hexagon","80","81,80","hexagon,triangle,diamond,circle,square","B","A","","","","test","14","true","1","categorize-html","80","141083","0.0-6.0-26.0","24125","20224112","rare"
"291.5","false","diamond,hexagon","80","81,80","hexagon,triangle,diamond,circle,square","C","A","","","","test","15","true","1","categorize-html","82","142892","0.0-6.0-28.0","24125","20224112","rare"
"211.5","false","hexagon","81","81,80","hexagon,triangle,diamond,circle,square","A","","","","","test","16","true","1","categorize-html","84","144617","0.0-6.0-30.0","24125","20224112","common"
"331","false","diamond","81","81,80","hexagon,triangle,diamond,circle,square","C","","","","","test","17","true","1","categorize-html","86","146473","0.0-6.0-32.0","24125","20224112","common"
"435.79999923706055","false","diamond","81","81,80","hexagon,triangle,diamond,circle,square","C","","","","","test","18","true","1","categorize-html","88","148415","0.0-6.0-34.0","24125","20224112","common"
"491.8999996185303","false","diamond,triangle","80","81,80","hexagon,triangle,diamond,circle,square","C","B","","","","test","19","true","1","categorize-html","90","150427","0.0-6.0-36.0","24125","20224112","rare"
"289.3000011444092","false","triangle","81","81,80","hexagon,triangle,diamond,circle,square","B","","","","","test","20","true","1","categorize-html","92","152232","0.0-6.0-38.0","24125","20224112","common"
"230.5","false","hexagon,diamond","81","81,80","hexagon,triangle,diamond,circle,square","A","C","","","","test","21","true","1","categorize-html","94","153978","0.0-6.0-40.0","24125","20224112","common"
"273.29999923706055","false","triangle,diamond","81","81,80","hexagon,triangle,diamond,circle,square","B","C","","","","test","22","true","1","categorize-html","96","155760","0.0-6.0-42.0","24125","20224112","common"
"313.8999996185303","false","triangle","80","81,80","hexagon,triangle,diamond,circle,square","B","","","","","test","23","true","1","categorize-html","98","157597","0.0-6.0-44.0","24125","20224112","rare"
"754.3999996185303","false","hexagon,triangle","81","81,80","hexagon,triangle,diamond,circle,square","A","B","","","","test","24","true","1","categorize-html","100","159860","0.0-6.0-46.0","24125","20224112","common"
"550.7000007629395","false","hexagon","80","81,80","hexagon,triangle,diamond,circle,square","A","","","","","test","25","true","1","categorize-html","103","164931","0.0-6.0-49.0","24125","20224112","rare"
"232.39999961853027","false","hexagon,triangle","81","81,80","hexagon,triangle,diamond,circle,square","A","B","","","","test","26","true","1","categorize-html","105","166689","0.0-6.0-51.0","24125","20224112","common"
"278.5","false","triangle,hexagon","81","81,80","hexagon,triangle,diamond,circle,square","B","A","","","","test","27","true","1","categorize-html","107","168491","0.0-6.0-53.0","24125","20224112","common"
"206.60000038146973","false","diamond,hexagon","80","81,80","hexagon,triangle,diamond,circle,square","C","A","","","","test","28","true","1","categorize-html","109","170229","0.0-6.0-55.0","24125","20224112","rare"
"280.70000076293945","false","diamond","81","81,80","hexagon,triangle,diamond,circle,square","C","","","","","test","29","true","1","categorize-html","111","172029","0.0-6.0-57.0","24125","20224112","common"
"154.10000038146973","false","hexagon","80","81,80","hexagon,triangle,diamond,circle,square","A","","","","","test","30","true","1","categorize-html","113","173709","0.0-6.0-59.0","24125","20224112","rare"
"285.8000011444092","false","diamond","80","81,80","hexagon,triangle,diamond,circle,square","C","","","","","test","31","true","1","categorize-html","115","175505","0.0-6.0-61.0","24125","20224112","rare"
"303.1000003814697","false","triangle","80","81,80","hexagon,triangle,diamond,circle,square","B","","","","","test","32","true","1","categorize-html","117","177328","0.0-6.0-63.0","24125","20224112","rare"
"358.8000011444092","false","triangle","81","81,80","hexagon,triangle,diamond,circle,square","B","","","","","test","33","true","1","categorize-html","119","179195","0.0-6.0-65.0","24125","20224112","common"
"380.5","false","triangle,diamond","81","81,80","hexagon,triangle,diamond,circle,square","B","C","","","","test","34","true","1","categorize-html","121","181110","0.0-6.0-67.0","24125","20224112","common"
"479.6000003814697","false","hexagon,diamond","80","81,80","hexagon,triangle,diamond,circle,square","A","C","","","","test","35","true","1","categorize-html","123","183114","0.0-6.0-69.0","24125","20224112","rare"
"571.9000015258789","false","diamond,triangle","81","81,80","hexagon,triangle,diamond,circle,square","C","B","","","","test","36","true","1","categorize-html","125","185209","0.0-6.0-71.0","24125","20224112","common"
"654.1999988555908","false","hexagon","80","81,80","hexagon,triangle,diamond,circle,square","A","","","","","test","37","true","1","categorize-html","127","187391","0.0-6.0-73.0","24125","20224112","rare"
"557.0999984741211","false","diamond,triangle","81","81,80","hexagon,triangle,diamond,circle,square","C","B","","","","test","38","true","1","categorize-html","129","189460","0.0-6.0-75.0","24125","20224112","common"
"613.7000007629395","false","diamond","81","81,80","hexagon,triangle,diamond,circle,square","C","","","","","test","39","true","1","categorize-html","131","191605","0.0-6.0-77.0","24125","20224112","common"
"530.8000011444092","false","triangle,diamond","81","81,80","hexagon,triangle,diamond,circle,square","B","C","","","","test","40","true","1","categorize-html","133","193663","0.0-6.0-79.0","24125","20224112","common"
"456.5","false","hexagon","81","81,80","hexagon,triangle,diamond,circle,square","A","","","","","test","41","true","1","categorize-html","135","195632","0.0-6.0-81.0","24125","20224112","common"
"339.29999923706055","false","triangle","80","81,80","hexagon,triangle,diamond,circle,square","B","","","","","test","42","true","1","categorize-html","137","197489","0.0-6.0-83.0","24125","20224112","rare"
"1358.1000003814697","false","triangle","80","81,80","hexagon,triangle,diamond,circle,square","B","","","","","test","43","true","1","categorize-html","139","200363","0.0-6.0-85.0","24125","20224112","rare"
"552.8999996185303","false","diamond,hexagon","81","81,80","hexagon,triangle,diamond,circle,square","C","A","","","","test","44","true","1","categorize-html","141","202433","0.0-6.0-87.0","24125","20224112","common"
"394.8999996185303","false","hexagon,diamond","80","81,80","hexagon,triangle,diamond,circle,square","A","C","","","","test","45","true","1","categorize-html","143","204350","0.0-6.0-89.0","24125","20224112","rare"
"242.70000076293945","false","triangle,hexagon","81","81,80","hexagon,triangle,diamond,circle,square","B","A","","","","test","46","true","1","categorize-html","145","206117","0.0-6.0-91.0","24125","20224112","common"
"416.6000003814697","false","diamond","81","81,80","hexagon,triangle,diamond,circle,square","C","","","","","test","47","true","1","categorize-html","147","208051","0.0-6.0-93.0","24125","20224112","common"
"536.7000007629395","false","hexagon,triangle","80","81,80","hexagon,triangle,diamond,circle,square","A","B","","","","test","48","true","1","categorize-html","149","210110","0.0-6.0-95.0","24125","20224112","rare"
"489.8999996185303","false","triangle,hexagon","80","81,80","hexagon,triangle,diamond,circle,square","B","A","","","","test","49","true","1","categorize-html","152","214117","0.0-6.0-98.0","24125","20224112","rare"
"217.29999923706055","false","triangle,diamond","80","81,80","hexagon,triangle,diamond,circle,square","B","C","","","","test","50","true","1","categorize-html","154","215850","0.0-6.0-100.0","24125","20224112","rare"
"360.9000015258789","false","hexagon,triangle","80","81,80","hexagon,triangle,diamond,circle,square","A","B","","","","test","51","true","1","categorize-html","156","217728","0.0-6.0-102.0","24125","20224112","rare"
"79.5","false","diamond","81","81,80","hexagon,triangle,diamond,circle,square","C","","","","","test","52","true","1","categorize-html","158","219318","0.0-6.0-104.0","24125","20224112","common"
"103.5","false","hexagon","81","81,80","hexagon,triangle,diamond,circle,square","A","","","","","test","53","true","1","categorize-html","160","220931","0.0-6.0-106.0","24125","20224112","common"
"147.60000038146973","false","triangle","80","81,80","hexagon,triangle,diamond,circle,square","B","","","","","test","54","true","1","categorize-html","162","222596","0.0-6.0-108.0","24125","20224112","rare"
"54.30000114440918","false","hexagon,diamond","80","81,80","hexagon,triangle,diamond,circle,square","A","C","","","","test","55","true","1","categorize-html","164","224167","0.0-6.0-110.0","24125","20224112","rare"
"118.20000076293945","false","diamond","81","81,80","hexagon,triangle,diamond,circle,square","C","","","","","test","56","true","1","categorize-html","166","225802","0.0-6.0-112.0","24125","20224112","common"
"251.20000076293945","false","hexagon","81","81,80","hexagon,triangle,diamond,circle,square","A","","","","","test","57","true","1","categorize-html","168","227564","0.0-6.0-114.0","24125","20224112","common"
"11","false","triangle","81","81,80","hexagon,triangle,diamond,circle,square","B","","","","","test","58","true","1","categorize-html","170","229087","0.0-6.0-116.0","24125","20224112","common"
"120.30000114440918","false","diamond,hexagon","80","81,80","hexagon,triangle,diamond,circle,square","C","A","","","","test","59","true","1","categorize-html","172","230719","0.0-6.0-118.0","24125","20224112","rare"
"97.89999961853027","false","diamond,triangle","81","81,80","hexagon,triangle,diamond,circle,square","C","B","","","","test","60","true","1","categorize-html","174","232331","0.0-6.0-120.0","24125","20224112","common"
"50.10000038146973","false","hexagon","80","81,80","hexagon,triangle,diamond,circle,square","A","","","","","test","61","true","1","categorize-html","176","233901","0.0-6.0-122.0","24125","20224112","rare"
"13.599998474121094","false","diamond,triangle","81","81,80","hexagon,triangle,diamond,circle,square","C","B","","","","test","62","true","1","categorize-html","178","235438","0.0-6.0-124.0","24125","20224112","common"
"100.4000015258789","false","triangle","81","81,80","hexagon,triangle,diamond,circle,square","B","","","","","test","63","true","1","categorize-html","180","237054","0.0-6.0-126.0","24125","20224112","common"
"68.19999885559082","false","triangle,hexagon","80","81,80","hexagon,triangle,diamond,circle,square","B","A","","","","test","64","true","1","categorize-html","182","238631","0.0-6.0-128.0","24125","20224112","rare"
"108.20000076293945","false","diamond,hexagon","81","81,80","hexagon,triangle,diamond,circle,square","C","A","","","","test","65","true","1","categorize-html","184","240250","0.0-6.0-130.0","24125","20224112","common"
"68.29999923706055","false","diamond","81","81,80","hexagon,triangle,diamond,circle,square","C","","","","","test","66","true","1","categorize-html","186","241847","0.0-6.0-132.0","24125","20224112","common"
"36.10000038146973","false","triangle","80","81,80","hexagon,triangle,diamond,circle,square","B","","","","","test","67","true","1","categorize-html","188","243396","0.0-6.0-134.0","24125","20224112","rare"
"44.5","false","hexagon,triangle","81","81,80","hexagon,triangle,diamond,circle,square","A","B","","","","test","68","true","1","categorize-html","190","244954","0.0-6.0-136.0","24125","20224112","common"
"52.89999961853027","false","hexagon","80","81,80","hexagon,triangle,diamond,circle,square","A","","","","","test","69","true","1","categorize-html","192","246531","0.0-6.0-138.0","24125","20224112","rare"
"30.700000762939453","false","triangle,diamond","80","81,80","hexagon,triangle,diamond,circle,square","B","C","","","","test","70","true","1","categorize-html","194","248074","0.0-6.0-140.0","24125","20224112","rare"
"154","false","diamond","80","81,80","hexagon,triangle,diamond,circle,square","C","","","","","test","71","true","1","categorize-html","196","249738","0.0-6.0-142.0","24125","20224112","rare"
"26","false","hexagon,diamond","80","81,80","hexagon,triangle,diamond,circle,square","A","C","","","","test","72","true","1","categorize-html","198","251276","0.0-6.0-144.0","24125","20224112","rare"
"471.8999996185303","false","diamond,triangle","80","81,80","hexagon,triangle,diamond,circle,square","C","B","","","","test","73","true","1","categorize-html","201","254811","0.0-6.0-147.0","24125","20224112","rare"
"226.79999923706055","false","hexagon","81","81,80","hexagon,triangle,diamond,circle,square","A","","","","","test","74","true","1","categorize-html","203","256554","0.0-6.0-149.0","24125","20224112","common"
"207.20000076293945","false","hexagon","80","81,80","hexagon,triangle,diamond,circle,square","A","","","","","test","75","true","1","categorize-html","205","258277","0.0-6.0-151.0","24125","20224112","rare"
"115.29999923706055","false","triangle,diamond","81","81,80","hexagon,triangle,diamond,circle,square","B","C","","","","test","76","true","1","categorize-html","207","259902","0.0-6.0-153.0","24125","20224112","common"
"362.1999988555908","false","hexagon,triangle","80","81,80","hexagon,triangle,diamond,circle,square","A","B","","","","test","77","true","1","categorize-html","209","261776","0.0-6.0-155.0","24125","20224112","rare"
"120.39999961853027","false","diamond,hexagon","80","81,80","hexagon,triangle,diamond,circle,square","C","A","","","","test","78","true","1","categorize-html","211","263408","0.0-6.0-157.0","24125","20224112","rare"
"33.69999885559082","false","hexagon,diamond","80","81,80","hexagon,triangle,diamond,circle,square","A","C","","","","test","79","true","1","categorize-html","213","264959","0.0-6.0-159.0","24125","20224112","rare"
"72.70000076293945","false","diamond","80","81,80","hexagon,triangle,diamond,circle,square","C","","","","","test","80","true","1","categorize-html","215","266545","0.0-6.0-161.0","24125","20224112","rare"
"223.19999885559082","false","triangle","80","81,80","hexagon,triangle,diamond,circle,square","B","","","","","test","81","true","1","categorize-html","217","268274","0.0-6.0-163.0","24125","20224112","rare"
"240.9000015258789","false","triangle","81","81,80","hexagon,triangle,diamond,circle,square","B","","","","","test","82","true","1","categorize-html","219","270026","0.0-6.0-165.0","24125","20224112","common"
"230","false","triangle,hexagon","81","81,80","hexagon,triangle,diamond,circle,square","B","A","","","","test","83","true","1","categorize-html","221","271779","0.0-6.0-167.0","24125","20224112","common"
"215","false","diamond","80","81,80","hexagon,triangle,diamond,circle,square","C","","","","","test","84","true","1","categorize-html","223","273514","0.0-6.0-169.0","24125","20224112","rare"
"208.80000114440918","false","diamond","81","81,80","hexagon,triangle,diamond,circle,square","C","","","","","test","85","true","1","categorize-html","225","275237","0.0-6.0-171.0","24125","20224112","common"
"24.700000762939453","false","hexagon","80","81,80","hexagon,triangle,diamond,circle,square","A","","","","","test","86","true","1","categorize-html","227","276782","0.0-6.0-173.0","24125","20224112","rare"
"270.79999923706055","false","hexagon,triangle","81","81,80","hexagon,triangle,diamond,circle,square","A","B","","","","test","87","true","1","categorize-html","229","278566","0.0-6.0-175.0","24125","20224112","common"
"294.4000015258789","false","diamond","80","81,80","hexagon,triangle,diamond,circle,square","C","","","","","test","88","true","1","categorize-html","231","280366","0.0-6.0-177.0","24125","20224112","rare"
"204.69999885559082","false","diamond,hexagon","80","81,80","hexagon,triangle,diamond,circle,square","C","A","","","","test","89","true","1","categorize-html","233","282091","0.0-6.0-179.0","24125","20224112","rare"
"177.60000038146973","false","diamond,triangle","81","81,80","hexagon,triangle,diamond,circle,square","C","B","","","","test","90","true","1","categorize-html","235","283786","0.0-6.0-181.0","24125","20224112","common"
"18.900001525878906","false","hexagon,diamond","80","81,80","hexagon,triangle,diamond,circle,square","A","C","","","","test","91","true","1","categorize-html","237","285317","0.0-6.0-183.0","24125","20224112","rare"
"130.10000038146973","false","triangle","80","81,80","hexagon,triangle,diamond,circle,square","B","","","","","test","92","true","1","categorize-html","239","286966","0.0-6.0-185.0","24125","20224112","rare"
"161.69999885559082","false","triangle","81","81,80","hexagon,triangle,diamond,circle,square","B","","","","","test","93","true","1","categorize-html","241","288643","0.0-6.0-187.0","24125","20224112","common"
"8006.60000038147","false","hexagon","81","81,80","hexagon,triangle,diamond,circle,square","A","","","","","test","94","true","1","categorize-html","243","299039","0.0-6.0-189.0","24125","20224112","common"
"44.39999961853027","false","triangle,diamond","81","81,80","hexagon,triangle,diamond,circle,square","B","C","","","","test","95","true","1","categorize-html","245","300611","0.0-6.0-191.0","24125","20224112","common"
"215.60000038146973","false","triangle,hexagon","80","81,80","hexagon,triangle,diamond,circle,square","B","A","","","","test","96","true","1","categorize-html","247","302331","0.0-6.0-193.0","24125","20224112","rare"
"535.7000007629395","false","triangle","80","81,80","hexagon,triangle,diamond,circle,square","B","","","","","test","97","true","1","categorize-html","250","306288","0.0-6.0-196.0","24125","20224112","rare"
"309.79999923706055","false","hexagon,diamond","80","81,80","hexagon,triangle,diamond,circle,square","A","C","","","","test","98","true","1","categorize-html","252","308126","0.0-6.0-198.0","24125","20224112","rare"
"274.29999923706055","false","diamond,hexagon","80","81,80","hexagon,triangle,diamond,circle,square","C","A","","","","test","99","true","1","categorize-html","254","309906","0.0-6.0-200.0","24125","20224112","rare"
"287.8999996185303","false","diamond,triangle","80","81,80","hexagon,triangle,diamond,circle,square","C","B","","","","test","100","true","1","categorize-html","256","311715","0.0-6.0-202.0","24125","20224112","rare"
"272.3999996185303","false","triangle,hexagon","80","81,80","hexagon,triangle,diamond,circle,square","B","A","","","","test","101","true","1","categorize-html","258","313516","0.0-6.0-204.0","24125","20224112","rare"
"1290.7000007629395","false","hexagon","81","81,80","hexagon,triangle,diamond,circle,square","A","","","","","test","102","true","1","categorize-html","260","316335","0.0-6.0-206.0","24125","20224112","common"
"296.6999988555908","false","triangle,diamond","81","81,80","hexagon,triangle,diamond,circle,square","B","C","","","","test","103","true","1","categorize-html","262","318150","0.0-6.0-208.0","24125","20224112","common"
"1823.2000007629395","false","diamond","81","81,80","hexagon,triangle,diamond,circle,square","C","","","","","test","104","true","1","categorize-html","264","321494","0.0-6.0-210.0","24125","20224112","common"
"660.2000007629395","false","triangle","80","81,80","hexagon,triangle,diamond,circle,square","B","","","","","test","105","true","1","categorize-html","266","323676","0.0-6.0-212.0","24125","20224112","rare"
"334.5","false","diamond","81","81,80","hexagon,triangle,diamond,circle,square","C","","","","","test","106","true","1","categorize-html","268","325516","0.0-6.0-214.0","24125","20224112","common"
"683.5","false","hexagon","81","81,80","hexagon,triangle,diamond,circle,square","A","","","","","test","107","true","1","categorize-html","270","327709","0.0-6.0-216.0","24125","20224112","common"
"417.20000076293945","false","hexagon,triangle","80","81,80","hexagon,triangle,diamond,circle,square","A","B","","","","test","108","true","1","categorize-html","272","329649","0.0-6.0-218.0","24125","20224112","rare"
"531","false","diamond,hexagon","80","81,80","hexagon,triangle,diamond,circle,square","C","A","","","","test","109","true","1","categorize-html","274","331698","0.0-6.0-220.0","24125","20224112","rare"
"491.1000003814697","false","triangle,diamond","80","81,80","hexagon,triangle,diamond,circle,square","B","C","","","","test","110","true","1","categorize-html","276","333709","0.0-6.0-222.0","24125","20224112","rare"
"1425.6000003814697","false","diamond","81","81,80","hexagon,triangle,diamond,circle,square","C","","","","","test","111","true","1","categorize-html","278","336649","0.0-6.0-224.0","24125","20224112","common"
"305.6000003814697","false","diamond,triangle","80","81,80","hexagon,triangle,diamond,circle,square","C","B","","","","test","112","true","1","categorize-html","280","338479","0.0-6.0-226.0","24125","20224112","rare"
"689.1000003814697","false","hexagon","81","81,80","hexagon,triangle,diamond,circle,square","A","","","","","test","113","true","1","categorize-html","282","340679","0.0-6.0-228.0","24125","20224112","common"
"678.3999996185303","false","diamond","81","81,80","hexagon,triangle,diamond,circle,square","C","","","","","test","114","true","1","categorize-html","284","342869","0.0-6.0-230.0","24125","20224112","common"
"500.20000076293945","false","triangle","80","81,80","hexagon,triangle,diamond,circle,square","B","","","","","test","115","true","1","categorize-html","286","344883","0.0-6.0-232.0","24125","20224112","rare"
"688.1999988555908","false","hexagon","81","81,80","hexagon,triangle,diamond,circle,square","A","","","","","test","116","true","1","categorize-html","288","347089","0.0-6.0-234.0","24125","20224112","common"
"451","false","triangle,hexagon","81","81,80","hexagon,triangle,diamond,circle,square","B","A","","","","test","117","true","1","categorize-html","290","349059","0.0-6.0-236.0","24125","20224112","common"
"486.6000003814697","false","hexagon,triangle","80","81,80","hexagon,triangle,diamond,circle,square","A","B","","","","test","118","true","1","categorize-html","292","351072","0.0-6.0-238.0","24125","20224112","rare"
"497.70000076293945","false","hexagon,diamond","80","81,80","hexagon,triangle,diamond,circle,square","A","C","","","","test","119","true","1","categorize-html","294","353095","0.0-6.0-240.0","24125","20224112","rare"
"476.6999988555908","false","triangle","80","81,80","hexagon,triangle,diamond,circle,square","B","","","","","test","120","true","1","categorize-html","296","355090","0.0-6.0-242.0","24125","20224112","rare"
