"rt","correct","stimulus","key_press","keys","symptoms_shuffle","symptom1","symptom2","symptom3","key","category","phase","trial","include","block","trial_type","trial_index","time_elapsed","internal_node_id","ppt","session","abresp"
"null","false","hexagon,triangle,square","null","80,81","square,circle,triangle,diamond,hexagon","E","C","A","81","rare","training","1","true","1","categorize-html","4","118110","0.0-4.0-0.0","25290","202301716","none"
"null","false","diamond,square,circle","null","80,81","square,circle,triangle,diamond,hexagon","D","A","B","80","common","training","2","true","1","categorize-html","6","124137","0.0-4.0-2.0","25290","202301716","none"
"3170.399999976158","false","diamond,square,circle","32","80,81","square,circle,triangle,diamond,hexagon","D","A","B","80","common","training","3","true","1","categorize-html","8","128342","0.0-4.0-4.0","25290","202301716","none"
"3681.100000023842","false","circle,diamond,square","32","80,81","square,circle,triangle,diamond,hexagon","B","D","A","80","common","training","4","true","1","categorize-html","10","133051","0.0-4.0-6.0","25290","202301716","none"
"3567.399999976158","false","circle,square,diamond","32","80,81","square,circle,triangle,diamond,hexagon","B","A","D","80","common","training","5","true","1","categorize-html","12","137646","0.0-4.0-8.0","25290","202301716","none"
"4003.100000023842","false","square,hexagon,triangle","32","80,81","square,circle,triangle,diamond,hexagon","A","E","C","81","rare","training","6","true","1","categorize-html","14","142662","0.0-4.0-10.0","25290","202301716","none"
"2872.5","false","square,diamond,circle","32","80,81","square,circle,triangle,diamond,hexagon","A","D","B","80","common","training","7","true","1","categorize-html","16","146572","0.0-4.0-12.0","25290","202301716","none"
"3169","false","diamond,square,circle","32","80,81","square,circle,triangle,diamond,hexagon","D","A","B","80","common","training","8","true","1","categorize-html","18","150760","0.0-4.0-14.0","25290","202301716","none"
"3130.3000000715256","false","circle,diamond,square","32","80,81","square,circle,triangle,diamond,hexagon","B","D","A","80","common","training","9","true","1","categorize-html","20","154915","0.0-4.0-16.0","25290","202301716","none"
"2359.7999999523163","false","square,circle,diamond","32","80,81","square,circle,triangle,diamond,hexagon","A","B","D","80","common","training","10","true","1","categorize-html","22","158312","0.0-4.0-18.0","25290","202301716","none"
"2804.5","false","triangle,square,hexagon","32","80,81","square,circle,triangle,diamond,hexagon","C","A","E","81","rare","training","11","true","1","categorize-html","24","162145","0.0-4.0-20.0","25290","202301716","none"
"3217.2000000476837","false","circle,square,diamond","32","80,81","square,circle,triangle,diamond,hexagon","B","A","D","80","common","training","12","true","1","categorize-html","26","166394","0.0-4.0-22.0","25290","202301716","none"
"3919.100000023842","false","square,diamond,circle","32","80,81","square,circle,triangle,diamond,hexagon","A","D","B","80","common","training","13","true","1","categorize-html","28","171334","0.0-4.0-24.0","25290","202301716","none"
"3697.4000000953674","false","circle,diamond,square","32","80,81","square,circle,triangle,diamond,hexagon","B","D","A","80","common","training","14","true","1","categorize-html","30","176059","0.0-4.0-26.0","25290","202301716","none"
"3820.399999976158","false","diamond,circle,square","32","80,81","square,circle,triangle,diamond,hexagon","D","B","A","80","common","training","15","true","1","categorize-html","32","180909","0.0-4.0-28.0","25290","202301716","none"
"2873.3000000715256","false","square,circle,diamond","32","80,81","square,circle,triangle,diamond,hexagon","A","B","D","80","common","training","16","true","1","categorize-html","34","184798","0.0-4.0-30.0","25290","202301716","none"
"2470.8000000715256","false","circle,square,diamond","32","80,81","square,circle,triangle,diamond,hexagon","B","A","D","80","common","training","17","true","1","categorize-html","36","188308","0.0-4.0-32.0","25290","202301716","none"
"3155.6999999284744","false","triangle,hexagon,square","32","80,81","square,circle,triangle,diamond,hexagon","C","E","A","81","rare","training","18","true","1","categorize-html","38","192484","0.0-4.0-34.0","25290","202301716","none"
"2371.5","false","diamond,circle,square","32","80,81","square,circle,triangle,diamond,hexagon","D","B","A","80","common","training","19","true","1","categorize-html","40","195878","0.0-4.0-36.0","25290","202301716","none"
"3775.2999999523163","false","hexagon,square,triangle","32","80,81","square,circle,triangle,diamond,hexagon","E","A","C","81","rare","training","20","true","1","categorize-html","42","200684","0.0-4.0-38.0","25290","202301716","none"
"2516.8000000715256","false","square,triangle,hexagon","32","80,81","square,circle,triangle,diamond,hexagon","A","C","E","81","rare","training","21","true","1","categorize-html","44","204237","0.0-4.0-40.0","25290","202301716","none"
"2119","false","square,diamond,circle","32","80,81","square,circle,triangle,diamond,hexagon","A","D","B","80","common","training","22","true","1","categorize-html","46","207373","0.0-4.0-42.0","25290","202301716","none"
"4342","false","square,circle,diamond","32","80,81","square,circle,triangle,diamond,hexagon","A","B","D","80","common","training","23","true","1","categorize-html","48","212749","0.0-4.0-44.0","25290","202301716","none"
"null","false","diamond,circle,square","null","80,81","square,circle,triangle,diamond,hexagon","D","B","A","80","common","training","24","true","1","categorize-html","50","218779","0.0-4.0-46.0","25290","202301716","none"
"4336","false","circle,square,diamond","32","80,81","square,circle,triangle,diamond,hexagon","B","A","D","80","common","training","25","true","2","categorize-html","53","240556","0.0-4.0-49.0","25290","202301716","none"
"2393.1999999284744","false","circle,diamond,square","32","80,81","square,circle,triangle,diamond,hexagon","B","D","A","80","common","training","26","true","2","categorize-html","55","243985","0.0-4.0-51.0","25290","202301716","none"
"1460.4000000953674","false","square,diamond,circle","32","80,81","square,circle,triangle,diamond,hexagon","A","D","B","80","common","training","27","true","2","categorize-html","57","246472","0.0-4.0-53.0","25290","202301716","none"
"3340.100000023842","false","triangle,hexagon,square","32","80,81","square,circle,triangle,diamond,hexagon","C","E","A","81","rare","training","28","true","2","categorize-html","59","250829","0.0-4.0-55.0","25290","202301716","none"
"3338.7000000476837","false","square,circle,diamond","32","80,81","square,circle,triangle,diamond,hexagon","A","B","D","80","common","training","29","true","2","categorize-html","61","255194","0.0-4.0-57.0","25290","202301716","none"
"1949.3999999761581","false","square,hexagon,triangle","32","80,81","square,circle,triangle,diamond,hexagon","A","E","C","81","rare","training","30","true","2","categorize-html","63","258180","0.0-4.0-59.0","25290","202301716","none"
"1438.2999999523163","false","square,diamond,circle","32","80,81","square,circle,triangle,diamond,hexagon","A","D","B","80","common","training","31","true","2","categorize-html","65","260645","0.0-4.0-61.0","25290","202301716","none"
"1350.7000000476837","false","triangle,square,hexagon","32","80,81","square,circle,triangle,diamond,hexagon","C","A","E","81","rare","training","32","true","2","categorize-html","67","263026","0.0-4.0-63.0","25290","202301716","none"
"2069.100000023842","false","diamond,square,circle","32","80,81","square,circle,triangle,diamond,hexagon","D","A","B","80","common","training","33","true","2","categorize-html","69","266123","0.0-4.0-65.0","25290","202301716","none"
"2221.4000000953674","false","diamond,circle,square","32","80,81","square,circle,triangle,diamond,hexagon","D","B","A","80","common","training","34","true","2","categorize-html","71","269373","0.0-4.0-67.0","25290","202301716","none"
"3523.6999999284744","false","square,circle,diamond","32","80,81","square,circle,triangle,diamond,hexagon","A","B","D","80","common","training","35","true","2","categorize-html","73","273909","0.0-4.0-69.0","25290","202301716","none"
"2392.2999999523163","false","diamond,square,circle","32","80,81","square,circle,triangle,diamond,hexagon","D","A","B","80","common","training","36","true","2","categorize-html","75","277332","0.0-4.0-71.0","25290","202301716","none"
"1230.7000000476837","false","diamond,circle,square","32","80,81","square,circle,triangle,diamond,hexagon","D","B","A","80","common","training","37","true","2","categorize-html","77","279582","0.0-4.0-73.0","25290","202301716","none"
"1293.2000000476837","false","hexagon,triangle,square","32","80,81","square,circle,triangle,diamond,hexagon","E","C","A","81","rare","training","38","true","2","categorize-html","79","281893","0.0-4.0-75.0","25290","202301716","none"
"2982.100000023842","false","hexagon,square,triangle","32","80,81","square,circle,triangle,diamond,hexagon","E","A","C","81","rare","training","39","true","2","categorize-html","81","285896","0.0-4.0-77.0","25290","202301716","none"
"2386.3000000715256","false","circle,square,diamond","32","80,81","square,circle,triangle,diamond,hexagon","B","A","D","80","common","training","40","true","2","categorize-html","83","289310","0.0-4.0-79.0","25290","202301716","none"
"1316.3000000715256","false","square,diamond,circle","32","80,81","square,circle,triangle,diamond,hexagon","A","D","B","80","common","training","41","true","2","categorize-html","85","291660","0.0-4.0-81.0","25290","202301716","none"
"1585.3999999761581","false","diamond,circle,square","32","80,81","square,circle,triangle,diamond,hexagon","D","B","A","80","common","training","42","true","2","categorize-html","87","294271","0.0-4.0-83.0","25290","202301716","none"
"2523.899999976158","false","circle,square,diamond","32","80,81","square,circle,triangle,diamond,hexagon","B","A","D","80","common","training","43","true","2","categorize-html","89","297807","0.0-4.0-85.0","25290","202301716","none"
"2128.899999976158","false","square,triangle,hexagon","32","80,81","square,circle,triangle,diamond,hexagon","A","C","E","81","rare","training","44","true","2","categorize-html","91","300958","0.0-4.0-87.0","25290","202301716","none"
"1072.8999999761581","false","circle,diamond,square","32","80,81","square,circle,triangle,diamond,hexagon","B","D","A","80","common","training","45","true","2","categorize-html","93","303050","0.0-4.0-89.0","25290","202301716","none"
"2033","false","circle,diamond,square","32","80,81","square,circle,triangle,diamond,hexagon","B","D","A","80","common","training","46","true","2","categorize-html","95","306108","0.0-4.0-91.0","25290","202301716","none"
"2072.2000000476837","false","square,circle,diamond","32","80,81","square,circle,triangle,diamond,hexagon","A","B","D","80","common","training","47","true","2","categorize-html","97","309200","0.0-4.0-93.0","25290","202301716","none"
"1569.0999999046326","false","diamond,square,circle","32","80,81","square,circle,triangle,diamond,hexagon","D","A","B","80","common","training","48","true","2","categorize-html","99","311793","0.0-4.0-95.0","25290","202301716","none"
"null","false","square","null","80,81","square,circle,triangle,diamond,hexagon","A","","","","","test","1","true","1","categorize-html","103","379032","0.0-6.0-0.0","25290","202301716","none"
"4262.599999904633","false","square,triangle","81","80,81","square,circle,triangle,diamond,hexagon","A","C","","","","test","2","true","1","categorize-html","105","384815","0.0-6.0-2.0","25290","202301716","rare"
"6305.800000071526","false","triangle","81","80,81","square,circle,triangle,diamond,hexagon","C","","","","","test","3","true","1","categorize-html","107","392643","0.0-6.0-4.0","25290","202301716","rare"
"6435.799999952316","false","circle","80","80,81","square,circle,triangle,diamond,hexagon","B","","","","","test","4","true","1","categorize-html","109","400609","0.0-6.0-6.0","25290","202301716","common"
"3591.399999976158","false","circle","81","80,81","square,circle,triangle,diamond,hexagon","B","","","","","test","5","true","1","categorize-html","111","405719","0.0-6.0-8.0","25290","202301716","rare"
"6592.099999904633","false","circle,square","81","80,81","square,circle,triangle,diamond,hexagon","B","A","","","","test","6","true","1","categorize-html","113","413838","0.0-6.0-10.0","25290","202301716","rare"
"5128.199999928474","false","circle,triangle","80","80,81","square,circle,triangle,diamond,hexagon","B","C","","","","test","7","true","1","categorize-html","115","420502","0.0-6.0-12.0","25290","202301716","common"
"5128.299999952316","false","triangle,circle","81","80,81","square,circle,triangle,diamond,hexagon","C","B","","","","test","8","true","1","categorize-html","117","427155","0.0-6.0-14.0","25290","202301716","rare"
"2344","false","square","80","80,81","square,circle,triangle,diamond,hexagon","A","","","","","test","9","true","1","categorize-html","119","431036","0.0-6.0-16.0","25290","202301716","common"
"2144.399999976158","false","square,circle","81","80,81","square,circle,triangle,diamond,hexagon","A","B","","","","test","10","true","1","categorize-html","121","434707","0.0-6.0-18.0","25290","202301716","rare"
"3574.899999976158","false","triangle","81","80,81","square,circle,triangle,diamond,hexagon","C","","","","","test","11","true","1","categorize-html","123","439816","0.0-6.0-20.0","25290","202301716","rare"
"7256.100000023842","false","triangle,square","81","80,81","square,circle,triangle,diamond,hexagon","C","A","","","","test","12","true","1","categorize-html","125","448591","0.0-6.0-22.0","25290","202301716","rare"
"3136.9000000953674","false","square","80","80,81","square,circle,triangle,diamond,hexagon","A","","","","","test","13","true","1","categorize-html","127","453251","0.0-6.0-24.0","25290","202301716","common"
"3442.7999999523163","false","triangle,square","80","80,81","square,circle,triangle,diamond,hexagon","C","A","","","","test","14","true","1","categorize-html","129","458221","0.0-6.0-26.0","25290","202301716","common"
"3454","false","circle","80","80,81","square,circle,triangle,diamond,hexagon","B","","","","","test","15","true","1","categorize-html","131","463211","0.0-6.0-28.0","25290","202301716","common"
"3863.3000000715256","false","circle","80","80,81","square,circle,triangle,diamond,hexagon","B","","","","","test","16","true","1","categorize-html","133","468613","0.0-6.0-30.0","25290","202301716","common"
"2189.5","false","square,circle","80","80,81","square,circle,triangle,diamond,hexagon","A","B","","","","test","17","true","1","categorize-html","135","472334","0.0-6.0-32.0","25290","202301716","common"
"1661.5999999046326","false","circle,square","80","80,81","square,circle,triangle,diamond,hexagon","B","A","","","","test","18","true","1","categorize-html","137","475527","0.0-6.0-34.0","25290","202301716","common"
"4070.399999976158","false","circle,triangle","80","80,81","square,circle,triangle,diamond,hexagon","B","C","","","","test","19","true","1","categorize-html","139","481119","0.0-6.0-36.0","25290","202301716","common"
"2546.5","false","square,triangle","81","80,81","square,circle,triangle,diamond,hexagon","A","C","","","","test","20","true","1","categorize-html","141","485200","0.0-6.0-38.0","25290","202301716","rare"
"1554.7999999523163","false","square","80","80,81","square,circle,triangle,diamond,hexagon","A","","","","","test","21","true","1","categorize-html","143","488274","0.0-6.0-40.0","25290","202301716","common"
"1549.8999999761581","false","triangle","81","80,81","square,circle,triangle,diamond,hexagon","C","","","","","test","22","true","1","categorize-html","145","491352","0.0-6.0-42.0","25290","202301716","rare"
"3163","false","triangle","80","80,81","square,circle,triangle,diamond,hexagon","C","","","","","test","23","true","1","categorize-html","147","496045","0.0-6.0-44.0","25290","202301716","common"
"1728.8999999761581","false","triangle,circle","80","80,81","square,circle,triangle,diamond,hexagon","C","B","","","","test","24","true","1","categorize-html","149","499300","0.0-6.0-46.0","25290","202301716","common"
"3149","false","circle","80","80,81","square,circle,triangle,diamond,hexagon","B","","","","","test","25","true","1","categorize-html","152","507077","0.0-6.0-49.0","25290","202301716","common"
"2346.7000000476837","false","triangle,square","80","80,81","square,circle,triangle,diamond,hexagon","C","A","","","","test","26","true","1","categorize-html","154","510955","0.0-6.0-51.0","25290","202301716","common"
"1466.8999999761581","false","square","80","80,81","square,circle,triangle,diamond,hexagon","A","","","","","test","27","true","1","categorize-html","156","513946","0.0-6.0-53.0","25290","202301716","common"
"877.3999999761581","false","square","80","80,81","square,circle,triangle,diamond,hexagon","A","","","","","test","28","true","1","categorize-html","158","516362","0.0-6.0-55.0","25290","202301716","common"
"865.7999999523163","false","square,circle","80","80,81","square,circle,triangle,diamond,hexagon","A","B","","","","test","29","true","1","categorize-html","160","518766","0.0-6.0-57.0","25290","202301716","common"
"863","false","triangle,circle","81","80,81","square,circle,triangle,diamond,hexagon","C","B","","","","test","30","true","1","categorize-html","162","521154","0.0-6.0-59.0","25290","202301716","rare"
"1776.3999999761581","false","triangle","81","80,81","square,circle,triangle,diamond,hexagon","C","","","","","test","31","true","1","categorize-html","164","524473","0.0-6.0-61.0","25290","202301716","rare"
"1108.2000000476837","false","square,triangle","80","80,81","square,circle,triangle,diamond,hexagon","A","C","","","","test","32","true","1","categorize-html","166","527112","0.0-6.0-63.0","25290","202301716","common"
"1794.6999999284744","false","circle,triangle","80","80,81","square,circle,triangle,diamond,hexagon","B","C","","","","test","33","true","1","categorize-html","168","530426","0.0-6.0-65.0","25290","202301716","common"
"3155.899999976158","false","circle","80","80,81","square,circle,triangle,diamond,hexagon","B","","","","","test","34","true","1","categorize-html","170","535112","0.0-6.0-67.0","25290","202301716","common"
"1584.8999999761581","false","circle,square","80","80,81","square,circle,triangle,diamond,hexagon","B","A","","","","test","35","true","1","categorize-html","172","538217","0.0-6.0-69.0","25290","202301716","common"
"2139.8000000715256","false","triangle","80","80,81","square,circle,triangle,diamond,hexagon","C","","","","","test","36","true","1","categorize-html","174","541872","0.0-6.0-71.0","25290","202301716","common"
"1783","false","triangle,circle","81","80,81","square,circle,triangle,diamond,hexagon","C","B","","","","test","37","true","1","categorize-html","176","545179","0.0-6.0-73.0","25290","202301716","rare"
"1953.8000000715256","false","square,circle","80","80,81","square,circle,triangle,diamond,hexagon","A","B","","","","test","38","true","1","categorize-html","178","548675","0.0-6.0-75.0","25290","202301716","common"
"2740.1999999284744","false","square,triangle","81","80,81","square,circle,triangle,diamond,hexagon","A","C","","","","test","39","true","1","categorize-html","180","552935","0.0-6.0-77.0","25290","202301716","rare"
"2773.8000000715256","false","square","80","80,81","square,circle,triangle,diamond,hexagon","A","","","","","test","40","true","1","categorize-html","182","557245","0.0-6.0-79.0","25290","202301716","common"
"5764.699999928474","false","circle,square","80","80,81","square,circle,triangle,diamond,hexagon","B","A","","","","test","41","true","1","categorize-html","184","564544","0.0-6.0-81.0","25290","202301716","common"
"1622.2000000476837","false","circle,triangle","81","80,81","square,circle,triangle,diamond,hexagon","B","C","","","","test","42","true","1","categorize-html","186","567700","0.0-6.0-83.0","25290","202301716","rare"
"1350.6000000238419","false","circle","81","80,81","square,circle,triangle,diamond,hexagon","B","","","","","test","43","true","1","categorize-html","188","570575","0.0-6.0-85.0","25290","202301716","rare"
"2000","false","square","80","80,81","square,circle,triangle,diamond,hexagon","A","","","","","test","44","true","1","categorize-html","190","574101","0.0-6.0-87.0","25290","202301716","common"
"2665.2000000476837","false","triangle","81","80,81","square,circle,triangle,diamond,hexagon","C","","","","","test","45","true","1","categorize-html","192","578303","0.0-6.0-89.0","25290","202301716","rare"
"3517.899999976158","false","triangle,square","80","80,81","square,circle,triangle,diamond,hexagon","C","A","","","","test","46","true","1","categorize-html","194","583353","0.0-6.0-91.0","25290","202301716","common"
"1730.7999999523163","false","triangle","81","80,81","square,circle,triangle,diamond,hexagon","C","","","","","test","47","true","1","categorize-html","196","586629","0.0-6.0-93.0","25290","202301716","rare"
"1615.5999999046326","false","circle","80","80,81","square,circle,triangle,diamond,hexagon","B","","","","","test","48","true","1","categorize-html","198","589771","0.0-6.0-95.0","25290","202301716","common"
"3112.6999999284744","false","circle","80","80,81","square,circle,triangle,diamond,hexagon","B","","","","","test","49","true","1","categorize-html","201","598567","0.0-6.0-98.0","25290","202301716","common"
"1807.5999999046326","false","square","80","80,81","square,circle,triangle,diamond,hexagon","A","","","","","test","50","true","1","categorize-html","203","601887","0.0-6.0-100.0","25290","202301716","common"
"2298.7000000476837","false","circle,square","80","80,81","square,circle,triangle,diamond,hexagon","B","A","","","","test","51","true","1","categorize-html","205","605717","0.0-6.0-102.0","25290","202301716","common"
"829","false","square,circle","80","80,81","square,circle,triangle,diamond,hexagon","A","B","","","","test","52","true","1","categorize-html","207","608079","0.0-6.0-104.0","25290","202301716","common"
"948.6999999284744","false","square,triangle","81","80,81","square,circle,triangle,diamond,hexagon","A","C","","","","test","53","true","1","categorize-html","209","610537","0.0-6.0-106.0","25290","202301716","rare"
"294.39999997615814","false","circle,triangle","81","80,81","square,circle,triangle,diamond,hexagon","B","C","","","","test","54","true","1","categorize-html","211","612366","0.0-6.0-108.0","25290","202301716","rare"
"1923","false","circle","81","80,81","square,circle,triangle,diamond,hexagon","B","","","","","test","55","true","1","categorize-html","213","615799","0.0-6.0-110.0","25290","202301716","rare"
"514.8999999761581","false","triangle","81","80,81","square,circle,triangle,diamond,hexagon","C","","","","","test","56","true","1","categorize-html","215","617846","0.0-6.0-112.0","25290","202301716","rare"
"465.7000000476837","false","square","81","80,81","square,circle,triangle,diamond,hexagon","A","","","","","test","57","true","1","categorize-html","217","619841","0.0-6.0-114.0","25290","202301716","rare"
"532.1999999284744","false","triangle,square","80","80,81","square,circle,triangle,diamond,hexagon","C","A","","","","test","58","true","1","categorize-html","219","621894","0.0-6.0-116.0","25290","202301716","common"
"610.6999999284744","false","triangle,circle","80","80,81","square,circle,triangle,diamond,hexagon","C","B","","","","test","59","true","1","categorize-html","221","624023","0.0-6.0-118.0","25290","202301716","common"
"982.1000000238419","false","triangle","81","80,81","square,circle,triangle,diamond,hexagon","C","","","","","test","60","true","1","categorize-html","223","626528","0.0-6.0-120.0","25290","202301716","rare"
"957.8999999761581","false","circle,square","81","80,81","square,circle,triangle,diamond,hexagon","B","A","","","","test","61","true","1","categorize-html","225","629007","0.0-6.0-122.0","25290","202301716","rare"
"1096.9000000953674","false","circle","81","80,81","square,circle,triangle,diamond,hexagon","B","","","","","test","62","true","1","categorize-html","227","631637","0.0-6.0-124.0","25290","202301716","rare"
"747.6999999284744","false","triangle,circle","80","80,81","square,circle,triangle,diamond,hexagon","C","B","","","","test","63","true","1","categorize-html","229","633925","0.0-6.0-126.0","25290","202301716","common"
"1186","false","square,circle","80","80,81","square,circle,triangle,diamond,hexagon","A","B","","","","test","64","true","1","categorize-html","231","636648","0.0-6.0-128.0","25290","202301716","common"
"889.3000000715256","false","square,triangle","80","80,81","square,circle,triangle,diamond,hexagon","A","C","","","","test","65","true","1","categorize-html","233","639069","0.0-6.0-130.0","25290","202301716","common"
"853.1999999284744","false","square","81","80,81","square,circle,triangle,diamond,hexagon","A","","","","","test","66","true","1","categorize-html","235","641457","0.0-6.0-132.0","25290","202301716","rare"
"1000.7000000476837","false","triangle,square","80","80,81","square,circle,triangle,diamond,hexagon","C","A","","","","test","67","true","1","categorize-html","237","643981","0.0-6.0-134.0","25290","202301716","common"
"1513.7000000476837","false","triangle","81","80,81","square,circle,triangle,diamond,hexagon","C","","","","","test","68","true","1","categorize-html","239","647028","0.0-6.0-136.0","25290","202301716","rare"
"641.6999999284744","false","square","81","80,81","square,circle,triangle,diamond,hexagon","A","","","","","test","69","true","1","categorize-html","241","649202","0.0-6.0-138.0","25290","202301716","rare"
"962.6999999284744","false","circle,triangle","80","80,81","square,circle,triangle,diamond,hexagon","B","C","","","","test","70","true","1","categorize-html","243","651680","0.0-6.0-140.0","25290","202301716","common"
"1207.5","false","triangle","81","80,81","square,circle,triangle,diamond,hexagon","C","","","","","test","71","true","1","categorize-html","245","654408","0.0-6.0-142.0","25290","202301716","rare"
"1531.1999999284744","false","circle","81","80,81","square,circle,triangle,diamond,hexagon","B","","","","","test","72","true","1","categorize-html","247","657462","0.0-6.0-144.0","25290","202301716","rare"
"2416.2000000476837","false","circle","80","80,81","square,circle,triangle,diamond,hexagon","B","","","","","test","73","true","1","categorize-html","250","662942","0.0-6.0-147.0","25290","202301716","common"
"1113.1000000238419","false","square","81","80,81","square,circle,triangle,diamond,hexagon","A","","","","","test","74","true","1","categorize-html","252","665571","0.0-6.0-149.0","25290","202301716","rare"
"1012.3999999761581","false","triangle,circle","80","80,81","square,circle,triangle,diamond,hexagon","C","B","","","","test","75","true","1","categorize-html","254","668108","0.0-6.0-151.0","25290","202301716","common"
"870.3999999761581","false","circle,square","80","80,81","square,circle,triangle,diamond,hexagon","B","A","","","","test","76","true","1","categorize-html","256","670512","0.0-6.0-153.0","25290","202301716","common"
"1020.7000000476837","false","triangle","81","80,81","square,circle,triangle,diamond,hexagon","C","","","","","test","77","true","1","categorize-html","258","673040","0.0-6.0-155.0","25290","202301716","rare"
"1034.0999999046326","false","circle,triangle","80","80,81","square,circle,triangle,diamond,hexagon","B","C","","","","test","78","true","1","categorize-html","260","675594","0.0-6.0-157.0","25290","202301716","common"
"4500.5","false","square,triangle","81","80,81","square,circle,triangle,diamond,hexagon","A","C","","","","test","79","true","1","categorize-html","262","681618","0.0-6.0-159.0","25290","202301716","rare"
"957.8999999761581","false","square","81","80,81","square,circle,triangle,diamond,hexagon","A","","","","","test","80","true","1","categorize-html","264","684117","0.0-6.0-161.0","25290","202301716","rare"
"2405.399999976158","false","triangle,square","81","80,81","square,circle,triangle,diamond,hexagon","C","A","","","","test","81","true","1","categorize-html","266","688052","0.0-6.0-163.0","25290","202301716","rare"
"2346.6999999284744","false","square,circle","80","80,81","square,circle,triangle,diamond,hexagon","A","B","","","","test","82","true","1","categorize-html","268","691928","0.0-6.0-165.0","25290","202301716","common"
"946.7000000476837","false","triangle","81","80,81","square,circle,triangle,diamond,hexagon","C","","","","","test","83","true","1","categorize-html","270","694412","0.0-6.0-167.0","25290","202301716","rare"
"723.3999999761581","false","circle","81","80,81","square,circle,triangle,diamond,hexagon","B","","","","","test","84","true","1","categorize-html","272","696670","0.0-6.0-169.0","25290","202301716","rare"
"2415.5999999046326","false","circle,triangle","81","80,81","square,circle,triangle,diamond,hexagon","B","C","","","","test","85","true","1","categorize-html","274","700626","0.0-6.0-171.0","25290","202301716","rare"
"1212.8999999761581","false","square","80","80,81","square,circle,triangle,diamond,hexagon","A","","","","","test","86","true","1","categorize-html","276","703378","0.0-6.0-173.0","25290","202301716","common"
"703.5","false","circle,square","80","80,81","square,circle,triangle,diamond,hexagon","B","A","","","","test","87","true","1","categorize-html","278","705619","0.0-6.0-175.0","25290","202301716","common"
"1008.1999999284744","false","square,circle","80","80,81","square,circle,triangle,diamond,hexagon","A","B","","","","test","88","true","1","categorize-html","280","708173","0.0-6.0-177.0","25290","202301716","common"
"1313.7999999523163","false","circle","80","80,81","square,circle,triangle,diamond,hexagon","B","","","","","test","89","true","1","categorize-html","282","711012","0.0-6.0-179.0","25290","202301716","common"
"2956.899999976158","false","triangle,square","81","80,81","square,circle,triangle,diamond,hexagon","C","A","","","","test","90","true","1","categorize-html","284","715501","0.0-6.0-181.0","25290","202301716","rare"
"1282.1000000238419","false","square,triangle","80","80,81","square,circle,triangle,diamond,hexagon","A","C","","","","test","91","true","1","categorize-html","286","718314","0.0-6.0-183.0","25290","202301716","common"
"2771.100000023842","false","triangle","81","80,81","square,circle,triangle,diamond,hexagon","C","","","","","test","92","true","1","categorize-html","288","722611","0.0-6.0-185.0","25290","202301716","rare"
"436","false","circle","81","80,81","square,circle,triangle,diamond,hexagon","B","","","","","test","93","true","1","categorize-html","290","724582","0.0-6.0-187.0","25290","202301716","rare"
"635.5","false","triangle","81","80,81","square,circle,triangle,diamond,hexagon","C","","","","","test","94","true","1","categorize-html","292","726740","0.0-6.0-189.0","25290","202301716","rare"
"2323.8000000715256","false","triangle,circle","81","80,81","square,circle,triangle,diamond,hexagon","C","B","","","","test","95","true","1","categorize-html","294","730591","0.0-6.0-191.0","25290","202301716","rare"
"1250.9000000953674","false","square","81","80,81","square,circle,triangle,diamond,hexagon","A","","","","","test","96","true","1","categorize-html","296","733361","0.0-6.0-193.0","25290","202301716","rare"
"2418.5","false","triangle,circle","80","80,81","square,circle,triangle,diamond,hexagon","C","B","","","","test","97","true","1","categorize-html","299","742607","0.0-6.0-196.0","25290","202301716","common"
"583.6999999284744","false","square,circle","80","80,81","square,circle,triangle,diamond,hexagon","A","B","","","","test","98","true","1","categorize-html","301","744716","0.0-6.0-198.0","25290","202301716","common"
"979.7999999523163","false","square","81","80,81","square,circle,triangle,diamond,hexagon","A","","","","","test","99","true","1","categorize-html","303","747219","0.0-6.0-200.0","25290","202301716","rare"
"254.70000004768372","false","triangle,square","81","80,81","square,circle,triangle,diamond,hexagon","C","A","","","","test","100","true","1","categorize-html","305","748996","0.0-6.0-202.0","25290","202301716","rare"
"494.1999999284744","false","circle,triangle","80","80,81","square,circle,triangle,diamond,hexagon","B","C","","","","test","101","true","1","categorize-html","307","751032","0.0-6.0-204.0","25290","202301716","common"
"600.0999999046326","false","circle,square","80","80,81","square,circle,triangle,diamond,hexagon","B","A","","","","test","102","true","1","categorize-html","309","753162","0.0-6.0-206.0","25290","202301716","common"
"498.60000002384186","false","square","81","80,81","square,circle,triangle,diamond,hexagon","A","","","","","test","103","true","1","categorize-html","311","755188","0.0-6.0-208.0","25290","202301716","rare"
"332.60000002384186","false","circle","81","80,81","square,circle,triangle,diamond,hexagon","B","","","","","test","104","true","1","categorize-html","313","757039","0.0-6.0-210.0","25290","202301716","rare"
"1470.3999999761581","false","circle","81","80,81","square,circle,triangle,diamond,hexagon","B","","","","","test","105","true","1","categorize-html","315","760040","0.0-6.0-212.0","25290","202301716","rare"
"1056.4000000953674","false","square,triangle","81","80,81","square,circle,triangle,diamond,hexagon","A","C","","","","test","106","true","1","categorize-html","317","762615","0.0-6.0-214.0","25290","202301716","rare"
"628.1999999284744","false","triangle","80","80,81","square,circle,triangle,diamond,hexagon","C","","","","","test","107","true","1","categorize-html","319","764768","0.0-6.0-216.0","25290","202301716","common"
"630.8000000715256","false","triangle","81","80,81","square,circle,triangle,diamond,hexagon","C","","","","","test","108","true","1","categorize-html","321","766926","0.0-6.0-218.0","25290","202301716","rare"
"2015.3000000715256","false","triangle,circle","80","80,81","square,circle,triangle,diamond,hexagon","C","B","","","","test","109","true","1","categorize-html","323","770466","0.0-6.0-220.0","25290","202301716","common"
"2029.5","false","square","80","80,81","square,circle,triangle,diamond,hexagon","A","","","","","test","110","true","1","categorize-html","325","774016","0.0-6.0-222.0","25290","202301716","common"
"774.1000000238419","false","circle,triangle","80","80,81","square,circle,triangle,diamond,hexagon","B","C","","","","test","111","true","1","categorize-html","327","776317","0.0-6.0-224.0","25290","202301716","common"
"1029","false","square,circle","80","80,81","square,circle,triangle,diamond,hexagon","A","B","","","","test","112","true","1","categorize-html","329","778860","0.0-6.0-226.0","25290","202301716","common"
"682.2999999523163","false","circle","81","80,81","square,circle,triangle,diamond,hexagon","B","","","","","test","113","true","1","categorize-html","331","781072","0.0-6.0-228.0","25290","202301716","rare"
"458.1999999284744","false","circle","81","80,81","square,circle,triangle,diamond,hexagon","B","","","","","test","114","true","1","categorize-html","333","783044","0.0-6.0-230.0","25290","202301716","rare"
"2770.5","false","square,triangle","81","80,81","square,circle,triangle,diamond,hexagon","A","C","","","","test","115","true","1","categorize-html","335","787347","0.0-6.0-232.0","25290","202301716","rare"
"2658.5999999046326","false","square","81","80,81","square,circle,triangle,diamond,hexagon","A","","","","","test","116","true","1","categorize-html","337","791528","0.0-6.0-234.0","25290","202301716","rare"
"649.6000000238419","false","triangle","81","80,81","square,circle,triangle,diamond,hexagon","C","","","","","test","117","true","1","categorize-html","339","793699","0.0-6.0-236.0","25290","202301716","rare"
"2286.5","false","triangle,square","80","80,81","square,circle,triangle,diamond,hexagon","C","A","","","","test","118","true","1","categorize-html","341","797515","0.0-6.0-238.0","25290","202301716","common"
"1654.5999999046326","false","circle,square","80","80,81","square,circle,triangle,diamond,hexagon","B","A","","","","test","119","true","1","categorize-html","343","800700","0.0-6.0-240.0","25290","202301716","common"
"1536","false","triangle","81","80,81","square,circle,triangle,diamond,hexagon","C","","","","","test","120","true","1","categorize-html","345","803767","0.0-6.0-242.0","25290","202301716","rare"
