"rt","correct","stimulus","key_press","keys","symptoms_shuffle","symptom1","symptom2","symptom3","key","category","phase","trial","include","block","trial_type","trial_index","time_elapsed","internal_node_id","ppt","session","abresp"
"null","false","diamond,circle,square","null","80,81","diamond,square,hexagon,circle,triangle","A","D","B","80","common","training","1","true","1","categorize-html","4","72771","0.0-4.0-0.0","25191","202302014","none"
"3646","false","square,circle,diamond","32","80,81","diamond,square,hexagon,circle,triangle","B","D","A","80","common","training","2","true","1","categorize-html","6","77420","0.0-4.0-2.0","25191","202302014","none"
"2901","false","diamond,circle,square","32","80,81","diamond,square,hexagon,circle,triangle","A","D","B","80","common","training","3","true","1","categorize-html","8","81324","0.0-4.0-4.0","25191","202302014","none"
"1665.9999999999854","false","diamond,square,circle","32","80,81","diamond,square,hexagon,circle,triangle","A","B","D","80","common","training","4","true","1","categorize-html","10","83995","0.0-4.0-6.0","25191","202302014","none"
"2105","false","square,circle,diamond","32","80,81","diamond,square,hexagon,circle,triangle","B","D","A","80","common","training","5","true","1","categorize-html","12","87103","0.0-4.0-8.0","25191","202302014","none"
"3810.0000000000146","false","diamond,triangle,hexagon","32","80,81","diamond,square,hexagon,circle,triangle","A","E","C","81","rare","training","6","true","1","categorize-html","14","91918","0.0-4.0-10.0","25191","202302014","none"
"3103","false","circle,diamond,square","32","80,81","diamond,square,hexagon,circle,triangle","D","A","B","80","common","training","7","true","1","categorize-html","16","96025","0.0-4.0-12.0","25191","202302014","none"
"1856","false","triangle,hexagon,diamond","32","80,81","diamond,square,hexagon,circle,triangle","E","C","A","81","rare","training","8","true","1","categorize-html","18","98885","0.0-4.0-14.0","25191","202302014","none"
"1596","false","circle,diamond,square","32","80,81","diamond,square,hexagon,circle,triangle","D","A","B","80","common","training","9","true","1","categorize-html","20","101486","0.0-4.0-16.0","25191","202302014","none"
"2462","false","hexagon,diamond,triangle","32","80,81","diamond,square,hexagon,circle,triangle","C","A","E","81","rare","training","10","true","1","categorize-html","22","104953","0.0-4.0-18.0","25191","202302014","none"
"1848.9999999999854","false","square,diamond,circle","32","80,81","diamond,square,hexagon,circle,triangle","B","A","D","80","common","training","11","true","1","categorize-html","24","107805","0.0-4.0-20.0","25191","202302014","none"
"2362.0000000000146","false","circle,square,diamond","32","80,81","diamond,square,hexagon,circle,triangle","D","B","A","80","common","training","12","true","1","categorize-html","26","111172","0.0-4.0-22.0","25191","202302014","none"
"1974","false","square,circle,diamond","32","80,81","diamond,square,hexagon,circle,triangle","B","D","A","80","common","training","13","true","1","categorize-html","28","114151","0.0-4.0-24.0","25191","202302014","none"
"2116","false","triangle,diamond,hexagon","32","80,81","diamond,square,hexagon,circle,triangle","E","A","C","81","rare","training","14","true","1","categorize-html","30","117272","0.0-4.0-26.0","25191","202302014","none"
"2057","false","circle,square,diamond","32","80,81","diamond,square,hexagon,circle,triangle","D","B","A","80","common","training","15","true","1","categorize-html","32","120334","0.0-4.0-28.0","25191","202302014","none"
"3388","false","diamond,square,circle","32","80,81","diamond,square,hexagon,circle,triangle","A","B","D","80","common","training","16","true","1","categorize-html","34","124727","0.0-4.0-30.0","25191","202302014","none"
"2187","false","circle,diamond,square","32","80,81","diamond,square,hexagon,circle,triangle","D","A","B","80","common","training","17","true","1","categorize-html","36","127920","0.0-4.0-32.0","25191","202302014","none"
"2370","false","diamond,circle,square","32","80,81","diamond,square,hexagon,circle,triangle","A","D","B","80","common","training","18","true","1","categorize-html","38","131295","0.0-4.0-34.0","25191","202302014","none"
"2055","false","diamond,hexagon,triangle","32","80,81","diamond,square,hexagon,circle,triangle","A","C","E","81","rare","training","19","true","1","categorize-html","40","134354","0.0-4.0-36.0","25191","202302014","none"
"2287","false","hexagon,triangle,diamond","32","80,81","diamond,square,hexagon,circle,triangle","C","E","A","81","rare","training","20","true","1","categorize-html","42","137646","0.0-4.0-38.0","25191","202302014","none"
"2831","false","square,diamond,circle","32","80,81","diamond,square,hexagon,circle,triangle","B","A","D","80","common","training","21","true","1","categorize-html","44","141481","0.0-4.0-40.0","25191","202302014","none"
"2899","false","square,diamond,circle","32","80,81","diamond,square,hexagon,circle,triangle","B","A","D","80","common","training","22","true","1","categorize-html","46","145385","0.0-4.0-42.0","25191","202302014","none"
"2363","false","diamond,square,circle","32","80,81","diamond,square,hexagon,circle,triangle","A","B","D","80","common","training","23","true","1","categorize-html","48","148753","0.0-4.0-44.0","25191","202302014","none"
"1751","false","circle,square,diamond","32","80,81","diamond,square,hexagon,circle,triangle","D","B","A","80","common","training","24","true","1","categorize-html","50","151509","0.0-4.0-46.0","25191","202302014","none"
"3604","false","hexagon,diamond,triangle","32","80,81","diamond,square,hexagon,circle,triangle","C","A","E","81","rare","training","25","true","2","categorize-html","53","169505","0.0-4.0-49.0","25191","202302014","none"
"2391","false","diamond,square,circle","32","80,81","diamond,square,hexagon,circle,triangle","A","B","D","80","common","training","26","true","2","categorize-html","55","172900","0.0-4.0-51.0","25191","202302014","none"
"2863.999999999971","false","diamond,triangle,hexagon","32","80,81","diamond,square,hexagon,circle,triangle","A","E","C","81","rare","training","27","true","2","categorize-html","57","176770","0.0-4.0-53.0","25191","202302014","none"
"1683.999999999971","false","square,circle,diamond","32","80,81","diamond,square,hexagon,circle,triangle","B","D","A","80","common","training","28","true","2","categorize-html","59","179459","0.0-4.0-55.0","25191","202302014","none"
"2401","false","triangle,diamond,hexagon","32","80,81","diamond,square,hexagon,circle,triangle","E","A","C","81","rare","training","29","true","2","categorize-html","61","182863","0.0-4.0-57.0","25191","202302014","none"
"1937.000000000029","false","diamond,square,circle","32","80,81","diamond,square,hexagon,circle,triangle","A","B","D","80","common","training","30","true","2","categorize-html","63","185805","0.0-4.0-59.0","25191","202302014","none"
"2969","false","diamond,hexagon,triangle","32","80,81","diamond,square,hexagon,circle,triangle","A","C","E","81","rare","training","31","true","2","categorize-html","65","189778","0.0-4.0-61.0","25191","202302014","none"
"2977","false","triangle,hexagon,diamond","32","80,81","diamond,square,hexagon,circle,triangle","E","C","A","81","rare","training","32","true","2","categorize-html","67","193760","0.0-4.0-63.0","25191","202302014","none"
"2873.000000000029","false","circle,diamond,square","32","80,81","diamond,square,hexagon,circle,triangle","D","A","B","80","common","training","33","true","2","categorize-html","69","197638","0.0-4.0-65.0","25191","202302014","none"
"2121","false","square,circle,diamond","32","80,81","diamond,square,hexagon,circle,triangle","B","D","A","80","common","training","34","true","2","categorize-html","71","200764","0.0-4.0-67.0","25191","202302014","none"
"2465","false","circle,square,diamond","32","80,81","diamond,square,hexagon,circle,triangle","D","B","A","80","common","training","35","true","2","categorize-html","73","204235","0.0-4.0-69.0","25191","202302014","none"
"2355","false","circle,diamond,square","32","80,81","diamond,square,hexagon,circle,triangle","D","A","B","80","common","training","36","true","2","categorize-html","75","207595","0.0-4.0-71.0","25191","202302014","none"
"3189","false","square,diamond,circle","32","80,81","diamond,square,hexagon,circle,triangle","B","A","D","80","common","training","37","true","2","categorize-html","77","211789","0.0-4.0-73.0","25191","202302014","none"
"2539","false","square,diamond,circle","32","80,81","diamond,square,hexagon,circle,triangle","B","A","D","80","common","training","38","true","2","categorize-html","79","215332","0.0-4.0-75.0","25191","202302014","none"
"2915","false","circle,square,diamond","32","80,81","diamond,square,hexagon,circle,triangle","D","B","A","80","common","training","39","true","2","categorize-html","81","219253","0.0-4.0-77.0","25191","202302014","none"
"2621","false","circle,diamond,square","32","80,81","diamond,square,hexagon,circle,triangle","D","A","B","80","common","training","40","true","2","categorize-html","83","222878","0.0-4.0-79.0","25191","202302014","none"
"1935","false","diamond,circle,square","32","80,81","diamond,square,hexagon,circle,triangle","A","D","B","80","common","training","41","true","2","categorize-html","85","225819","0.0-4.0-81.0","25191","202302014","none"
"2818","false","diamond,square,circle","32","80,81","diamond,square,hexagon,circle,triangle","A","B","D","80","common","training","42","true","2","categorize-html","87","229642","0.0-4.0-83.0","25191","202302014","none"
"2410","false","circle,square,diamond","32","80,81","diamond,square,hexagon,circle,triangle","D","B","A","80","common","training","43","true","2","categorize-html","89","233057","0.0-4.0-85.0","25191","202302014","none"
"2273.000000000029","false","hexagon,triangle,diamond","32","80,81","diamond,square,hexagon,circle,triangle","C","E","A","81","rare","training","44","true","2","categorize-html","91","236335","0.0-4.0-87.0","25191","202302014","none"
"2587","false","diamond,circle,square","32","80,81","diamond,square,hexagon,circle,triangle","A","D","B","80","common","training","45","true","2","categorize-html","93","239927","0.0-4.0-89.0","25191","202302014","none"
"2860","false","square,diamond,circle","32","80,81","diamond,square,hexagon,circle,triangle","B","A","D","80","common","training","46","true","2","categorize-html","95","243792","0.0-4.0-91.0","25191","202302014","none"
"2783","false","diamond,circle,square","32","80,81","diamond,square,hexagon,circle,triangle","A","D","B","80","common","training","47","true","2","categorize-html","97","247580","0.0-4.0-93.0","25191","202302014","none"
"3614.999999999971","false","square,circle,diamond","32","80,81","diamond,square,hexagon,circle,triangle","B","D","A","80","common","training","48","true","2","categorize-html","99","252199","0.0-4.0-95.0","25191","202302014","none"
"7159.999999999942","false","diamond","80","80,81","diamond,square,hexagon,circle,triangle","A","","","","","test","1","true","1","categorize-html","103","302986","0.0-6.0-0.0","25191","202302014","common"
"2434","false","diamond,hexagon","81","80,81","diamond,square,hexagon,circle,triangle","A","C","","","","test","2","true","1","categorize-html","105","306926","0.0-6.0-2.0","25191","202302014","rare"
"3017","false","hexagon,square","81","80,81","diamond,square,hexagon,circle,triangle","C","B","","","","test","3","true","1","categorize-html","107","311449","0.0-6.0-4.0","25191","202302014","rare"
"1716","false","square,diamond","80","80,81","diamond,square,hexagon,circle,triangle","B","A","","","","test","4","true","1","categorize-html","109","314670","0.0-6.0-6.0","25191","202302014","common"
"4362","false","hexagon","81","80,81","diamond,square,hexagon,circle,triangle","C","","","","","test","5","true","1","categorize-html","111","320536","0.0-6.0-8.0","25191","202302014","rare"
"1552","false","square","80","80,81","diamond,square,hexagon,circle,triangle","B","","","","","test","6","true","1","categorize-html","113","323594","0.0-6.0-10.0","25191","202302014","common"
"1748","false","square","80","80,81","diamond,square,hexagon,circle,triangle","B","","","","","test","7","true","1","categorize-html","115","326847","0.0-6.0-12.0","25191","202302014","common"
"5646","false","diamond","81","80,81","diamond,square,hexagon,circle,triangle","A","","","","","test","8","true","1","categorize-html","117","333998","0.0-6.0-14.0","25191","202302014","rare"
"1577","false","hexagon","81","80,81","diamond,square,hexagon,circle,triangle","C","","","","","test","9","true","1","categorize-html","119","337080","0.0-6.0-16.0","25191","202302014","rare"
"1610","false","square,hexagon","81","80,81","diamond,square,hexagon,circle,triangle","B","C","","","","test","10","true","1","categorize-html","121","340194","0.0-6.0-18.0","25191","202302014","rare"
"1385","false","diamond,square","81","80,81","diamond,square,hexagon,circle,triangle","A","B","","","","test","11","true","1","categorize-html","123","343085","0.0-6.0-20.0","25191","202302014","rare"
"2902","false","hexagon,diamond","81","80,81","diamond,square,hexagon,circle,triangle","C","A","","","","test","12","true","1","categorize-html","125","347492","0.0-6.0-22.0","25191","202302014","rare"
"991","false","diamond,hexagon","81","80,81","diamond,square,hexagon,circle,triangle","A","C","","","","test","13","true","1","categorize-html","127","349988","0.0-6.0-24.0","25191","202302014","rare"
"719","false","hexagon,diamond","81","80,81","diamond,square,hexagon,circle,triangle","C","A","","","","test","14","true","1","categorize-html","129","352211","0.0-6.0-26.0","25191","202302014","rare"
"1152","false","diamond","80","80,81","diamond,square,hexagon,circle,triangle","A","","","","","test","15","true","1","categorize-html","131","354868","0.0-6.0-28.0","25191","202302014","common"
"1059","false","square,hexagon","80","80,81","diamond,square,hexagon,circle,triangle","B","C","","","","test","16","true","1","categorize-html","133","357432","0.0-6.0-30.0","25191","202302014","common"
"724","false","hexagon,square","81","80,81","diamond,square,hexagon,circle,triangle","C","B","","","","test","17","true","1","categorize-html","135","359660","0.0-6.0-32.0","25191","202302014","rare"
"1061.9999999999418","false","square","80","80,81","diamond,square,hexagon,circle,triangle","B","","","","","test","18","true","1","categorize-html","137","362226","0.0-6.0-34.0","25191","202302014","common"
"1907","false","diamond","80","80,81","diamond,square,hexagon,circle,triangle","A","","","","","test","19","true","1","categorize-html","139","365638","0.0-6.0-36.0","25191","202302014","common"
"850","false","square,diamond","80","80,81","diamond,square,hexagon,circle,triangle","B","A","","","","test","20","true","1","categorize-html","141","367993","0.0-6.0-38.0","25191","202302014","common"
"644","false","hexagon","81","80,81","diamond,square,hexagon,circle,triangle","C","","","","","test","21","true","1","categorize-html","143","370142","0.0-6.0-40.0","25191","202302014","rare"
"966","false","diamond,square","80","80,81","diamond,square,hexagon,circle,triangle","A","B","","","","test","22","true","1","categorize-html","145","372613","0.0-6.0-42.0","25191","202302014","common"
"1008","false","hexagon","81","80,81","diamond,square,hexagon,circle,triangle","C","","","","","test","23","true","1","categorize-html","147","375126","0.0-6.0-44.0","25191","202302014","rare"
"906","false","square","80","80,81","diamond,square,hexagon,circle,triangle","B","","","","","test","24","true","1","categorize-html","149","377537","0.0-6.0-46.0","25191","202302014","common"
"1473","false","square,hexagon","81","80,81","diamond,square,hexagon,circle,triangle","B","C","","","","test","25","true","1","categorize-html","152","382942","0.0-6.0-49.0","25191","202302014","rare"
"1278","false","hexagon","81","80,81","diamond,square,hexagon,circle,triangle","C","","","","","test","26","true","1","categorize-html","154","385726","0.0-6.0-51.0","25191","202302014","rare"
"799","false","diamond","80","80,81","diamond,square,hexagon,circle,triangle","A","","","","","test","27","true","1","categorize-html","156","388030","0.0-6.0-53.0","25191","202302014","common"
"609","false","square","80","80,81","diamond,square,hexagon,circle,triangle","B","","","","","test","28","true","1","categorize-html","158","390145","0.0-6.0-55.0","25191","202302014","common"
"657","false","hexagon","81","80,81","diamond,square,hexagon,circle,triangle","C","","","","","test","29","true","1","categorize-html","160","392307","0.0-6.0-57.0","25191","202302014","rare"
"1479","false","hexagon,square","81","80,81","diamond,square,hexagon,circle,triangle","C","B","","","","test","30","true","1","categorize-html","162","395291","0.0-6.0-59.0","25191","202302014","rare"
"1202","false","square","80","80,81","diamond,square,hexagon,circle,triangle","B","","","","","test","31","true","1","categorize-html","164","397997","0.0-6.0-61.0","25191","202302014","common"
"1056.0000000000582","false","diamond,square","80","80,81","diamond,square,hexagon,circle,triangle","A","B","","","","test","32","true","1","categorize-html","166","400559","0.0-6.0-63.0","25191","202302014","common"
"1548","false","square,diamond","80","80,81","diamond,square,hexagon,circle,triangle","B","A","","","","test","33","true","1","categorize-html","168","403612","0.0-6.0-65.0","25191","202302014","common"
"1898","false","diamond,hexagon","81","80,81","diamond,square,hexagon,circle,triangle","A","C","","","","test","34","true","1","categorize-html","170","407015","0.0-6.0-67.0","25191","202302014","rare"
"1668","false","diamond","80","80,81","diamond,square,hexagon,circle,triangle","A","","","","","test","35","true","1","categorize-html","172","410187","0.0-6.0-69.0","25191","202302014","common"
"951","false","hexagon,diamond","81","80,81","diamond,square,hexagon,circle,triangle","C","A","","","","test","36","true","1","categorize-html","174","412642","0.0-6.0-71.0","25191","202302014","rare"
"916","false","diamond,square","80","80,81","diamond,square,hexagon,circle,triangle","A","B","","","","test","37","true","1","categorize-html","176","415064","0.0-6.0-73.0","25191","202302014","common"
"1001","false","square","80","80,81","diamond,square,hexagon,circle,triangle","B","","","","","test","38","true","1","categorize-html","178","417570","0.0-6.0-75.0","25191","202302014","common"
"836.9999999999418","false","diamond,hexagon","81","80,81","diamond,square,hexagon,circle,triangle","A","C","","","","test","39","true","1","categorize-html","180","419912","0.0-6.0-77.0","25191","202302014","rare"
"659.0000000000582","false","diamond","80","80,81","diamond,square,hexagon,circle,triangle","A","","","","","test","40","true","1","categorize-html","182","422076","0.0-6.0-79.0","25191","202302014","common"
"1066","false","square,hexagon","81","80,81","diamond,square,hexagon,circle,triangle","B","C","","","","test","41","true","1","categorize-html","184","424647","0.0-6.0-81.0","25191","202302014","rare"
"673","false","hexagon","81","80,81","diamond,square,hexagon,circle,triangle","C","","","","","test","42","true","1","categorize-html","186","426826","0.0-6.0-83.0","25191","202302014","rare"
"732.0000000000582","false","hexagon,square","81","80,81","diamond,square,hexagon,circle,triangle","C","B","","","","test","43","true","1","categorize-html","188","429063","0.0-6.0-85.0","25191","202302014","rare"
"1755","false","square","80","80,81","diamond,square,hexagon,circle,triangle","B","","","","","test","44","true","1","categorize-html","190","432323","0.0-6.0-87.0","25191","202302014","common"
"1066","false","square,diamond","80","80,81","diamond,square,hexagon,circle,triangle","B","A","","","","test","45","true","1","categorize-html","192","434895","0.0-6.0-89.0","25191","202302014","common"
"908","false","diamond","80","80,81","diamond,square,hexagon,circle,triangle","A","","","","","test","46","true","1","categorize-html","194","437308","0.0-6.0-91.0","25191","202302014","common"
"1214","false","hexagon,diamond","81","80,81","diamond,square,hexagon,circle,triangle","C","A","","","","test","47","true","1","categorize-html","196","440026","0.0-6.0-93.0","25191","202302014","rare"
"828","false","hexagon","81","80,81","diamond,square,hexagon,circle,triangle","C","","","","","test","48","true","1","categorize-html","198","442360","0.0-6.0-95.0","25191","202302014","rare"
"1297","false","diamond","81","80,81","diamond,square,hexagon,circle,triangle","A","","","","","test","49","true","1","categorize-html","201","447618","0.0-6.0-98.0","25191","202302014","rare"
"1056.9999999999418","false","square","80","80,81","diamond,square,hexagon,circle,triangle","B","","","","","test","50","true","1","categorize-html","203","450181","0.0-6.0-100.0","25191","202302014","common"
"1186","false","diamond,hexagon","81","80,81","diamond,square,hexagon,circle,triangle","A","C","","","","test","51","true","1","categorize-html","205","452873","0.0-6.0-102.0","25191","202302014","rare"
"956.9999999999418","false","square","80","80,81","diamond,square,hexagon,circle,triangle","B","","","","","test","52","true","1","categorize-html","207","455335","0.0-6.0-104.0","25191","202302014","common"
"978","false","square,diamond","80","80,81","diamond,square,hexagon,circle,triangle","B","A","","","","test","53","true","1","categorize-html","209","457819","0.0-6.0-106.0","25191","202302014","common"
"566","false","hexagon","81","80,81","diamond,square,hexagon,circle,triangle","C","","","","","test","54","true","1","categorize-html","211","459890","0.0-6.0-108.0","25191","202302014","rare"
"646","false","hexagon,square","81","80,81","diamond,square,hexagon,circle,triangle","C","B","","","","test","55","true","1","categorize-html","213","462040","0.0-6.0-110.0","25191","202302014","rare"
"482.0000000000582","false","hexagon","81","80,81","diamond,square,hexagon,circle,triangle","C","","","","","test","56","true","1","categorize-html","215","464028","0.0-6.0-112.0","25191","202302014","rare"
"1426","false","hexagon,diamond","81","80,81","diamond,square,hexagon,circle,triangle","C","A","","","","test","57","true","1","categorize-html","217","466960","0.0-6.0-114.0","25191","202302014","rare"
"898","false","diamond","81","80,81","diamond,square,hexagon,circle,triangle","A","","","","","test","58","true","1","categorize-html","219","469363","0.0-6.0-116.0","25191","202302014","rare"
"573","false","square,hexagon","81","80,81","diamond,square,hexagon,circle,triangle","B","C","","","","test","59","true","1","categorize-html","221","471441","0.0-6.0-118.0","25191","202302014","rare"
"1410.0000000000582","false","diamond,square","80","80,81","diamond,square,hexagon,circle,triangle","A","B","","","","test","60","true","1","categorize-html","223","474357","0.0-6.0-120.0","25191","202302014","common"
"657","false","hexagon","81","80,81","diamond,square,hexagon,circle,triangle","C","","","","","test","61","true","1","categorize-html","225","476520","0.0-6.0-122.0","25191","202302014","rare"
"1014","false","diamond","80","80,81","diamond,square,hexagon,circle,triangle","A","","","","","test","62","true","1","categorize-html","227","479039","0.0-6.0-124.0","25191","202302014","common"
"798","false","square,hexagon","81","80,81","diamond,square,hexagon,circle,triangle","B","C","","","","test","63","true","1","categorize-html","229","481342","0.0-6.0-126.0","25191","202302014","rare"
"1458","false","diamond,square","80","80,81","diamond,square,hexagon,circle,triangle","A","B","","","","test","64","true","1","categorize-html","231","484305","0.0-6.0-128.0","25191","202302014","common"
"764","false","diamond,hexagon","81","80,81","diamond,square,hexagon,circle,triangle","A","C","","","","test","65","true","1","categorize-html","233","486574","0.0-6.0-130.0","25191","202302014","rare"
"556","false","hexagon","81","80,81","diamond,square,hexagon,circle,triangle","C","","","","","test","66","true","1","categorize-html","235","488634","0.0-6.0-132.0","25191","202302014","rare"
"579","false","square","80","80,81","diamond,square,hexagon,circle,triangle","B","","","","","test","67","true","1","categorize-html","237","490718","0.0-6.0-134.0","25191","202302014","common"
"2002","false","square,diamond","80","80,81","diamond,square,hexagon,circle,triangle","B","A","","","","test","68","true","1","categorize-html","239","494226","0.0-6.0-136.0","25191","202302014","common"
"1393.0000000000582","false","diamond","80","80,81","diamond,square,hexagon,circle,triangle","A","","","","","test","69","true","1","categorize-html","241","497124","0.0-6.0-138.0","25191","202302014","common"
"1570.9999999999418","false","square","81","80,81","diamond,square,hexagon,circle,triangle","B","","","","","test","70","true","1","categorize-html","243","500200","0.0-6.0-140.0","25191","202302014","rare"
"1016","false","hexagon,square","81","80,81","diamond,square,hexagon,circle,triangle","C","B","","","","test","71","true","1","categorize-html","245","502721","0.0-6.0-142.0","25191","202302014","rare"
"2138","false","hexagon,diamond","81","80,81","diamond,square,hexagon,circle,triangle","C","A","","","","test","72","true","1","categorize-html","247","506364","0.0-6.0-144.0","25191","202302014","rare"
"1376","false","square","80","80,81","diamond,square,hexagon,circle,triangle","B","","","","","test","73","true","1","categorize-html","250","511037","0.0-6.0-147.0","25191","202302014","common"
"1072","false","diamond,hexagon","81","80,81","diamond,square,hexagon,circle,triangle","A","C","","","","test","74","true","1","categorize-html","252","513615","0.0-6.0-149.0","25191","202302014","rare"
"632.9999999999418","false","square,hexagon","81","80,81","diamond,square,hexagon,circle,triangle","B","C","","","","test","75","true","1","categorize-html","254","515754","0.0-6.0-151.0","25191","202302014","rare"
"1129.0000000000582","false","hexagon","81","80,81","diamond,square,hexagon,circle,triangle","C","","","","","test","76","true","1","categorize-html","256","518388","0.0-6.0-153.0","25191","202302014","rare"
"1099","false","diamond,square","80","80,81","diamond,square,hexagon,circle,triangle","A","B","","","","test","77","true","1","categorize-html","258","520992","0.0-6.0-155.0","25191","202302014","common"
"611","false","hexagon,diamond","81","80,81","diamond,square,hexagon,circle,triangle","C","A","","","","test","78","true","1","categorize-html","260","523108","0.0-6.0-157.0","25191","202302014","rare"
"745","false","square,diamond","81","80,81","diamond,square,hexagon,circle,triangle","B","A","","","","test","79","true","1","categorize-html","262","525357","0.0-6.0-159.0","25191","202302014","rare"
"1264.0000000001164","false","hexagon,square","81","80,81","diamond,square,hexagon,circle,triangle","C","B","","","","test","80","true","1","categorize-html","264","528124","0.0-6.0-161.0","25191","202302014","rare"
"1298","false","diamond","80","80,81","diamond,square,hexagon,circle,triangle","A","","","","","test","81","true","1","categorize-html","266","530928","0.0-6.0-163.0","25191","202302014","common"
"711","false","hexagon","81","80,81","diamond,square,hexagon,circle,triangle","C","","","","","test","82","true","1","categorize-html","268","533145","0.0-6.0-165.0","25191","202302014","rare"
"1172","false","diamond","80","80,81","diamond,square,hexagon,circle,triangle","A","","","","","test","83","true","1","categorize-html","270","535822","0.0-6.0-167.0","25191","202302014","common"
"1974.9999999998836","false","square","80","80,81","diamond,square,hexagon,circle,triangle","B","","","","","test","84","true","1","categorize-html","272","539301","0.0-6.0-169.0","25191","202302014","common"
"1142","false","hexagon,square","81","80,81","diamond,square,hexagon,circle,triangle","C","B","","","","test","85","true","1","categorize-html","274","541948","0.0-6.0-171.0","25191","202302014","rare"
"2848.9999999998836","false","diamond,hexagon","81","80,81","diamond,square,hexagon,circle,triangle","A","C","","","","test","86","true","1","categorize-html","276","546301","0.0-6.0-173.0","25191","202302014","rare"
"1049","false","square,hexagon","81","80,81","diamond,square,hexagon,circle,triangle","B","C","","","","test","87","true","1","categorize-html","278","548855","0.0-6.0-175.0","25191","202302014","rare"
"514","false","hexagon","81","80,81","diamond,square,hexagon,circle,triangle","C","","","","","test","88","true","1","categorize-html","280","550874","0.0-6.0-177.0","25191","202302014","rare"
"934","false","diamond","80","80,81","diamond,square,hexagon,circle,triangle","A","","","","","test","89","true","1","categorize-html","282","553313","0.0-6.0-179.0","25191","202302014","common"
"914.0000000001164","false","square","80","80,81","diamond,square,hexagon,circle,triangle","B","","","","","test","90","true","1","categorize-html","284","555730","0.0-6.0-181.0","25191","202302014","common"
"531","false","square","80","80,81","diamond,square,hexagon,circle,triangle","B","","","","","test","91","true","1","categorize-html","286","557766","0.0-6.0-183.0","25191","202302014","common"
"1143","false","hexagon,diamond","81","80,81","diamond,square,hexagon,circle,triangle","C","A","","","","test","92","true","1","categorize-html","288","560414","0.0-6.0-185.0","25191","202302014","rare"
"645","false","hexagon","81","80,81","diamond,square,hexagon,circle,triangle","C","","","","","test","93","true","1","categorize-html","290","562563","0.0-6.0-187.0","25191","202302014","rare"
"764","false","diamond","80","80,81","diamond,square,hexagon,circle,triangle","A","","","","","test","94","true","1","categorize-html","292","564832","0.0-6.0-189.0","25191","202302014","common"
"682","false","diamond,square","80","80,81","diamond,square,hexagon,circle,triangle","A","B","","","","test","95","true","1","categorize-html","294","567020","0.0-6.0-191.0","25191","202302014","common"
"745","false","square,diamond","80","80,81","diamond,square,hexagon,circle,triangle","B","A","","","","test","96","true","1","categorize-html","296","569270","0.0-6.0-193.0","25191","202302014","common"
"859","false","hexagon","81","80,81","diamond,square,hexagon,circle,triangle","C","","","","","test","97","true","1","categorize-html","299","576971","0.0-6.0-196.0","25191","202302014","rare"
"501","false","square","80","80,81","diamond,square,hexagon,circle,triangle","B","","","","","test","98","true","1","categorize-html","301","578978","0.0-6.0-198.0","25191","202302014","common"
"727","false","hexagon","81","80,81","diamond,square,hexagon,circle,triangle","C","","","","","test","99","true","1","categorize-html","303","581210","0.0-6.0-200.0","25191","202302014","rare"
"907","false","diamond,hexagon","81","80,81","diamond,square,hexagon,circle,triangle","A","C","","","","test","100","true","1","categorize-html","305","583622","0.0-6.0-202.0","25191","202302014","rare"
"681.0000000001164","false","square","80","80,81","diamond,square,hexagon,circle,triangle","B","","","","","test","101","true","1","categorize-html","307","585807","0.0-6.0-204.0","25191","202302014","common"
"822","false","square,hexagon","81","80,81","diamond,square,hexagon,circle,triangle","B","C","","","","test","102","true","1","categorize-html","309","588135","0.0-6.0-206.0","25191","202302014","rare"
"1079","false","hexagon,diamond","81","80,81","diamond,square,hexagon,circle,triangle","C","A","","","","test","103","true","1","categorize-html","311","590718","0.0-6.0-208.0","25191","202302014","rare"
"986","false","square,diamond","80","80,81","diamond,square,hexagon,circle,triangle","B","A","","","","test","104","true","1","categorize-html","313","593207","0.0-6.0-210.0","25191","202302014","common"
"574","false","hexagon,square","81","80,81","diamond,square,hexagon,circle,triangle","C","B","","","","test","105","true","1","categorize-html","315","595287","0.0-6.0-212.0","25191","202302014","rare"
"807","false","diamond,square","80","80,81","diamond,square,hexagon,circle,triangle","A","B","","","","test","106","true","1","categorize-html","317","597600","0.0-6.0-214.0","25191","202302014","common"
"710","false","diamond","80","80,81","diamond,square,hexagon,circle,triangle","A","","","","","test","107","true","1","categorize-html","319","599815","0.0-6.0-216.0","25191","202302014","common"
"602","false","diamond","81","80,81","diamond,square,hexagon,circle,triangle","A","","","","","test","108","true","1","categorize-html","321","601921","0.0-6.0-218.0","25191","202302014","rare"
"644","false","hexagon,square","81","80,81","diamond,square,hexagon,circle,triangle","C","B","","","","test","109","true","1","categorize-html","323","604071","0.0-6.0-220.0","25191","202302014","rare"
"1452","false","diamond","80","80,81","diamond,square,hexagon,circle,triangle","A","","","","","test","110","true","1","categorize-html","325","607028","0.0-6.0-222.0","25191","202302014","common"
"517.9999999998836","false","hexagon","81","80,81","diamond,square,hexagon,circle,triangle","C","","","","","test","111","true","1","categorize-html","327","609052","0.0-6.0-224.0","25191","202302014","rare"
"889","false","diamond,hexagon","81","80,81","diamond,square,hexagon,circle,triangle","A","C","","","","test","112","true","1","categorize-html","329","611446","0.0-6.0-226.0","25191","202302014","rare"
"1208.0000000001164","false","hexagon,diamond","81","80,81","diamond,square,hexagon,circle,triangle","C","A","","","","test","113","true","1","categorize-html","331","614158","0.0-6.0-228.0","25191","202302014","rare"
"836.0000000001164","false","square,hexagon","81","80,81","diamond,square,hexagon,circle,triangle","B","C","","","","test","114","true","1","categorize-html","333","616499","0.0-6.0-230.0","25191","202302014","rare"
"501.9999999998836","false","hexagon","81","80,81","diamond,square,hexagon,circle,triangle","C","","","","","test","115","true","1","categorize-html","335","618507","0.0-6.0-232.0","25191","202302014","rare"
"1036.0000000001164","false","diamond,square","80","80,81","diamond,square,hexagon,circle,triangle","A","B","","","","test","116","true","1","categorize-html","337","621048","0.0-6.0-234.0","25191","202302014","common"
"713.9999999998836","false","diamond","80","80,81","diamond,square,hexagon,circle,triangle","A","","","","","test","117","true","1","categorize-html","339","623266","0.0-6.0-236.0","25191","202302014","common"
"757.0000000001164","false","square","80","80,81","diamond,square,hexagon,circle,triangle","B","","","","","test","118","true","1","categorize-html","341","625528","0.0-6.0-238.0","25191","202302014","common"
"1197","false","square,diamond","80","80,81","diamond,square,hexagon,circle,triangle","B","A","","","","test","119","true","1","categorize-html","343","628231","0.0-6.0-240.0","25191","202302014","common"
"962","false","square","80","80,81","diamond,square,hexagon,circle,triangle","B","","","","","test","120","true","1","categorize-html","345","630698","0.0-6.0-242.0","25191","202302014","common"
