"rt","correct","stimulus","key_press","keys","symptoms_shuffle","symptom1","symptom2","symptom3","key","category","phase","trial","include","block","trial_type","trial_index","time_elapsed","internal_node_id","ppt","session","abresp"
"null","false","square,circle,diamond","null","80,81","square,diamond,hexagon,circle,triangle","A","D","B","80","common","training","1","true","1","categorize-html","4","110974","0.0-4.0-0.0","24395","202302016","none"
"2819.1999999284744","false","diamond,square,circle","32","80,81","square,diamond,hexagon,circle,triangle","B","A","D","80","common","training","2","true","1","categorize-html","6","114806","0.0-4.0-2.0","24395","202302016","none"
"4836.199999928474","false","diamond,circle,square","32","80,81","square,diamond,hexagon,circle,triangle","B","D","A","80","common","training","3","true","1","categorize-html","8","120655","0.0-4.0-4.0","24395","202302016","none"
"4948.399999976158","false","circle,diamond,square","32","80,81","square,diamond,hexagon,circle,triangle","D","B","A","80","common","training","4","true","1","categorize-html","10","126615","0.0-4.0-6.0","24395","202302016","none"
"3293.7000000476837","false","square,circle,diamond","32","80,81","square,diamond,hexagon,circle,triangle","A","D","B","80","common","training","5","true","1","categorize-html","12","130918","0.0-4.0-8.0","24395","202302016","none"
"3813.100000023842","false","square,diamond,circle","32","80,81","square,diamond,hexagon,circle,triangle","A","B","D","80","common","training","6","true","1","categorize-html","14","135741","0.0-4.0-10.0","24395","202302016","none"
"3736.899999976158","false","diamond,square,circle","32","80,81","square,diamond,hexagon,circle,triangle","B","A","D","80","common","training","7","true","1","categorize-html","16","140494","0.0-4.0-12.0","24395","202302016","none"
"1987.8999999761581","false","diamond,circle,square","32","80,81","square,diamond,hexagon,circle,triangle","B","D","A","80","common","training","8","true","1","categorize-html","18","143494","0.0-4.0-14.0","24395","202302016","none"
"null","false","triangle,hexagon,square","null","80,81","square,diamond,hexagon,circle,triangle","E","C","A","81","rare","training","9","true","1","categorize-html","20","149511","0.0-4.0-16.0","24395","202302016","none"
"4480.5","false","triangle,square,hexagon","32","80,81","square,diamond,hexagon,circle,triangle","E","A","C","81","rare","training","10","true","1","categorize-html","22","155005","0.0-4.0-18.0","24395","202302016","none"
"3776","false","circle,square,diamond","32","80,81","square,diamond,hexagon,circle,triangle","D","A","B","80","common","training","11","true","1","categorize-html","24","159797","0.0-4.0-20.0","24395","202302016","none"
"4350.900000095367","false","square,triangle,hexagon","32","80,81","square,diamond,hexagon,circle,triangle","A","E","C","81","rare","training","12","true","1","categorize-html","26","165158","0.0-4.0-22.0","24395","202302016","none"
"2115.9000000953674","false","square,hexagon,triangle","32","80,81","square,diamond,hexagon,circle,triangle","A","C","E","81","rare","training","13","true","1","categorize-html","28","168286","0.0-4.0-24.0","24395","202302016","none"
"3775.0999999046326","false","circle,diamond,square","32","80,81","square,diamond,hexagon,circle,triangle","D","B","A","80","common","training","14","true","1","categorize-html","30","173077","0.0-4.0-26.0","24395","202302016","none"
"1490.1000000238419","false","diamond,square,circle","32","80,81","square,diamond,hexagon,circle,triangle","B","A","D","80","common","training","15","true","1","categorize-html","32","175582","0.0-4.0-28.0","24395","202302016","none"
"3752.7999999523163","false","circle,diamond,square","32","80,81","square,diamond,hexagon,circle,triangle","D","B","A","80","common","training","16","true","1","categorize-html","34","180348","0.0-4.0-30.0","24395","202302016","none"
"2631","false","square,diamond,circle","32","80,81","square,diamond,hexagon,circle,triangle","A","B","D","80","common","training","17","true","1","categorize-html","36","183994","0.0-4.0-32.0","24395","202302016","none"
"2868","false","square,circle,diamond","32","80,81","square,diamond,hexagon,circle,triangle","A","D","B","80","common","training","18","true","1","categorize-html","38","187877","0.0-4.0-34.0","24395","202302016","none"
"2447.600000023842","false","diamond,circle,square","32","80,81","square,diamond,hexagon,circle,triangle","B","D","A","80","common","training","19","true","1","categorize-html","40","191337","0.0-4.0-36.0","24395","202302016","none"
"2612.7999999523163","false","square,diamond,circle","32","80,81","square,diamond,hexagon,circle,triangle","A","B","D","80","common","training","20","true","1","categorize-html","42","194966","0.0-4.0-38.0","24395","202302016","none"
"null","false","hexagon,square,triangle","null","80,81","square,diamond,hexagon,circle,triangle","C","A","E","81","rare","training","21","true","1","categorize-html","44","200992","0.0-4.0-40.0","24395","202302016","none"
"1434.8999999761581","false","circle,square,diamond","32","80,81","square,diamond,hexagon,circle,triangle","D","A","B","80","common","training","22","true","1","categorize-html","46","203445","0.0-4.0-42.0","24395","202302016","none"
"4633.400000095367","false","hexagon,triangle,square","32","80,81","square,diamond,hexagon,circle,triangle","C","E","A","81","rare","training","23","true","1","categorize-html","48","209094","0.0-4.0-44.0","24395","202302016","none"
"4371.699999928474","false","circle,square,diamond","32","80,81","square,diamond,hexagon,circle,triangle","D","A","B","80","common","training","24","true","1","categorize-html","50","214478","0.0-4.0-46.0","24395","202302016","none"
"6957.5","false","hexagon","81","80,81","square,diamond,hexagon,circle,triangle","C","","","","","test","1","true","1","categorize-html","54","268959","0.0-6.0-0.0","24395","202302016","rare"
"4253.899999976158","false","diamond","80","80,81","square,diamond,hexagon,circle,triangle","B","","","","","test","2","true","1","categorize-html","56","274727","0.0-6.0-2.0","24395","202302016","common"
"2645","false","square","80","80,81","square,diamond,hexagon,circle,triangle","A","","","","","test","3","true","1","categorize-html","58","278886","0.0-6.0-4.0","24395","202302016","common"
"4670.299999952316","false","square,diamond","80","80,81","square,diamond,hexagon,circle,triangle","A","B","","","","test","4","true","1","categorize-html","60","285070","0.0-6.0-6.0","24395","202302016","common"
"3460.6999999284744","false","diamond","80","80,81","square,diamond,hexagon,circle,triangle","B","","","","","test","5","true","1","categorize-html","62","290045","0.0-6.0-8.0","24395","202302016","common"
"4290.5","false","hexagon,square","81","80,81","square,diamond,hexagon,circle,triangle","C","A","","","","test","6","true","1","categorize-html","64","295854","0.0-6.0-10.0","24395","202302016","rare"
"5908.100000023842","false","square","81","80,81","square,diamond,hexagon,circle,triangle","A","","","","","test","7","true","1","categorize-html","66","303280","0.0-6.0-12.0","24395","202302016","rare"
"1342.7000000476837","false","hexagon","81","80,81","square,diamond,hexagon,circle,triangle","C","","","","","test","8","true","1","categorize-html","68","306135","0.0-6.0-14.0","24395","202302016","rare"
"4987.100000023842","false","diamond,hexagon","81","80,81","square,diamond,hexagon,circle,triangle","B","C","","","","test","9","true","1","categorize-html","70","312639","0.0-6.0-16.0","24395","202302016","rare"
"5966.899999976158","false","hexagon,diamond","81","80,81","square,diamond,hexagon,circle,triangle","C","B","","","","test","10","true","1","categorize-html","72","320118","0.0-6.0-18.0","24395","202302016","rare"
"3318.7999999523163","false","square,hexagon","81","80,81","square,diamond,hexagon,circle,triangle","A","C","","","","test","11","true","1","categorize-html","74","324952","0.0-6.0-20.0","24395","202302016","rare"
"2369.4000000953674","false","diamond,square","80","80,81","square,diamond,hexagon,circle,triangle","B","A","","","","test","12","true","1","categorize-html","76","328839","0.0-6.0-22.0","24395","202302016","common"
"1194.8000000715256","false","square","80","80,81","square,diamond,hexagon,circle,triangle","A","","","","","test","13","true","1","categorize-html","78","331551","0.0-6.0-24.0","24395","202302016","common"
"1143","false","hexagon","81","80,81","square,diamond,hexagon,circle,triangle","C","","","","","test","14","true","1","categorize-html","80","334215","0.0-6.0-26.0","24395","202302016","rare"
"1208.7999999523163","false","square","80","80,81","square,diamond,hexagon,circle,triangle","A","","","","","test","15","true","1","categorize-html","82","336943","0.0-6.0-28.0","24395","202302016","common"
"4005.2999999523163","false","hexagon,diamond","81","80,81","square,diamond,hexagon,circle,triangle","C","B","","","","test","16","true","1","categorize-html","84","342471","0.0-6.0-30.0","24395","202302016","rare"
"5895.899999976158","false","hexagon,square","80","80,81","square,diamond,hexagon,circle,triangle","C","A","","","","test","17","true","1","categorize-html","86","349888","0.0-6.0-32.0","24395","202302016","common"
"1676.7999999523163","false","square,diamond","80","80,81","square,diamond,hexagon,circle,triangle","A","B","","","","test","18","true","1","categorize-html","88","353096","0.0-6.0-34.0","24395","202302016","common"
"3059.399999976158","false","diamond,hexagon","81","80,81","square,diamond,hexagon,circle,triangle","B","C","","","","test","19","true","1","categorize-html","90","357680","0.0-6.0-36.0","24395","202302016","rare"
"1304.5","false","hexagon","81","80,81","square,diamond,hexagon,circle,triangle","C","","","","","test","20","true","1","categorize-html","92","360512","0.0-6.0-38.0","24395","202302016","rare"
"5634.100000023842","false","diamond,square","80","80,81","square,diamond,hexagon,circle,triangle","B","A","","","","test","21","true","1","categorize-html","94","367672","0.0-6.0-40.0","24395","202302016","common"
"1390.3999999761581","false","diamond","80","80,81","square,diamond,hexagon,circle,triangle","B","","","","","test","22","true","1","categorize-html","96","370592","0.0-6.0-42.0","24395","202302016","common"
"1805.1000000238419","false","square,hexagon","81","80,81","square,diamond,hexagon,circle,triangle","A","C","","","","test","23","true","1","categorize-html","98","373919","0.0-6.0-44.0","24395","202302016","rare"
"1570.8999999761581","false","diamond","80","80,81","square,diamond,hexagon,circle,triangle","B","","","","","test","24","true","1","categorize-html","100","377009","0.0-6.0-46.0","24395","202302016","common"
"5263","false","hexagon","81","80,81","square,diamond,hexagon,circle,triangle","C","","","","","test","25","true","1","categorize-html","103","386929","0.0-6.0-49.0","24395","202302016","rare"
"6424.399999976158","false","diamond,square","80","80,81","square,diamond,hexagon,circle,triangle","B","A","","","","test","26","true","1","categorize-html","105","394881","0.0-6.0-51.0","24395","202302016","common"
"1658.6000000238419","false","diamond","80","80,81","square,diamond,hexagon,circle,triangle","B","","","","","test","27","true","1","categorize-html","107","398072","0.0-6.0-53.0","24395","202302016","common"
"3286.399999976158","false","diamond","80","80,81","square,diamond,hexagon,circle,triangle","B","","","","","test","28","true","1","categorize-html","109","402888","0.0-6.0-55.0","24395","202302016","common"
"7801.600000023842","false","hexagon,square","81","80,81","square,diamond,hexagon,circle,triangle","C","A","","","","test","29","true","1","categorize-html","111","412224","0.0-6.0-57.0","24395","202302016","rare"
"3353","false","square,hexagon","80","80,81","square,diamond,hexagon,circle,triangle","A","C","","","","test","30","true","1","categorize-html","113","417094","0.0-6.0-59.0","24395","202302016","common"
"3638.899999976158","false","hexagon,diamond","81","80,81","square,diamond,hexagon,circle,triangle","C","B","","","","test","31","true","1","categorize-html","115","422246","0.0-6.0-61.0","24395","202302016","rare"
"3767.899999976158","false","square","80","80,81","square,diamond,hexagon,circle,triangle","A","","","","","test","32","true","1","categorize-html","117","427526","0.0-6.0-63.0","24395","202302016","common"
"5770.399999976158","false","diamond,hexagon","81","80,81","square,diamond,hexagon,circle,triangle","B","C","","","","test","33","true","1","categorize-html","119","434806","0.0-6.0-65.0","24395","202302016","rare"
"1273.3999999761581","false","square,diamond","80","80,81","square,diamond,hexagon,circle,triangle","A","B","","","","test","34","true","1","categorize-html","121","437587","0.0-6.0-67.0","24395","202302016","common"
"1925.1000000238419","false","square","81","80,81","square,diamond,hexagon,circle,triangle","A","","","","","test","35","true","1","categorize-html","123","441030","0.0-6.0-69.0","24395","202302016","rare"
"4089.100000023842","false","hexagon","81","80,81","square,diamond,hexagon,circle,triangle","C","","","","","test","36","true","1","categorize-html","125","446629","0.0-6.0-71.0","24395","202302016","rare"
"2017.3000000715256","false","square","80","80,81","square,diamond,hexagon,circle,triangle","A","","","","","test","37","true","1","categorize-html","127","450158","0.0-6.0-73.0","24395","202302016","common"
"1620","false","square,diamond","80","80,81","square,diamond,hexagon,circle,triangle","A","B","","","","test","38","true","1","categorize-html","129","453290","0.0-6.0-75.0","24395","202302016","common"
"1711.7999999523163","false","diamond","80","80,81","square,diamond,hexagon,circle,triangle","B","","","","","test","39","true","1","categorize-html","131","456518","0.0-6.0-77.0","24395","202302016","common"
"8854.600000023842","false","hexagon,diamond","81","80,81","square,diamond,hexagon,circle,triangle","C","B","","","","test","40","true","1","categorize-html","133","466886","0.0-6.0-79.0","24395","202302016","rare"
"4419.799999952316","false","hexagon,square","81","80,81","square,diamond,hexagon,circle,triangle","C","A","","","","test","41","true","1","categorize-html","135","472822","0.0-6.0-81.0","24395","202302016","rare"
"3021.7000000476837","false","square,hexagon","81","80,81","square,diamond,hexagon,circle,triangle","A","C","","","","test","42","true","1","categorize-html","137","477358","0.0-6.0-83.0","24395","202302016","rare"
"1116","false","hexagon","81","80,81","square,diamond,hexagon,circle,triangle","C","","","","","test","43","true","1","categorize-html","139","479990","0.0-6.0-85.0","24395","202302016","rare"
"651.6999999284744","false","diamond","80","80,81","square,diamond,hexagon,circle,triangle","B","","","","","test","44","true","1","categorize-html","141","482159","0.0-6.0-87.0","24395","202302016","common"
"1987.2999999523163","false","square","80","80,81","square,diamond,hexagon,circle,triangle","A","","","","","test","45","true","1","categorize-html","143","485659","0.0-6.0-89.0","24395","202302016","common"
"1558.8999999761581","false","diamond,hexagon","81","80,81","square,diamond,hexagon,circle,triangle","B","C","","","","test","46","true","1","categorize-html","145","488735","0.0-6.0-91.0","24395","202302016","rare"
"917","false","hexagon","81","80,81","square,diamond,hexagon,circle,triangle","C","","","","","test","47","true","1","categorize-html","147","491167","0.0-6.0-93.0","24395","202302016","rare"
"1111.0999999046326","false","diamond,square","80","80,81","square,diamond,hexagon,circle,triangle","B","A","","","","test","48","true","1","categorize-html","149","493791","0.0-6.0-95.0","24395","202302016","common"
"8313.899999976158","false","square,diamond","80","80,81","square,diamond,hexagon,circle,triangle","A","B","","","","test","49","true","1","categorize-html","152","506023","0.0-6.0-98.0","24395","202302016","common"
"5810.600000023842","false","diamond","80","80,81","square,diamond,hexagon,circle,triangle","B","","","","","test","50","true","1","categorize-html","154","513350","0.0-6.0-100.0","24395","202302016","common"
"2522.8000000715256","false","square","80","80,81","square,diamond,hexagon,circle,triangle","A","","","","","test","51","true","1","categorize-html","156","517391","0.0-6.0-102.0","24395","202302016","common"
"3061.1999999284744","false","diamond","81","80,81","square,diamond,hexagon,circle,triangle","B","","","","","test","52","true","1","categorize-html","158","521967","0.0-6.0-104.0","24395","202302016","rare"
"404.10000002384186","false","square","81","80,81","square,diamond,hexagon,circle,triangle","A","","","","","test","53","true","1","categorize-html","160","523887","0.0-6.0-106.0","24395","202302016","rare"
"1157.7999999523163","false","hexagon","81","80,81","square,diamond,hexagon,circle,triangle","C","","","","","test","54","true","1","categorize-html","162","526560","0.0-6.0-108.0","24395","202302016","rare"
"2987.399999976158","false","diamond,hexagon","81","80,81","square,diamond,hexagon,circle,triangle","B","C","","","","test","55","true","1","categorize-html","164","531064","0.0-6.0-110.0","24395","202302016","rare"
"1683.3000000715256","false","hexagon","81","80,81","square,diamond,hexagon,circle,triangle","C","","","","","test","56","true","1","categorize-html","166","534271","0.0-6.0-112.0","24395","202302016","rare"
"4961.799999952316","false","square,hexagon","80","80,81","square,diamond,hexagon,circle,triangle","A","C","","","","test","57","true","1","categorize-html","168","540751","0.0-6.0-114.0","24395","202302016","common"
"2585.899999976158","false","hexagon,diamond","81","80,81","square,diamond,hexagon,circle,triangle","C","B","","","","test","58","true","1","categorize-html","170","544854","0.0-6.0-116.0","24395","202302016","rare"
"2000.2000000476837","false","hexagon,square","80","80,81","square,diamond,hexagon,circle,triangle","C","A","","","","test","59","true","1","categorize-html","172","548368","0.0-6.0-118.0","24395","202302016","common"
"1451.5","false","diamond,square","80","80,81","square,diamond,hexagon,circle,triangle","B","A","","","","test","60","true","1","categorize-html","174","551344","0.0-6.0-120.0","24395","202302016","common"
"991.1999999284744","false","diamond","80","80,81","square,diamond,hexagon,circle,triangle","B","","","","","test","61","true","1","categorize-html","176","553857","0.0-6.0-122.0","24395","202302016","common"
"2769.399999976158","false","diamond,square","80","80,81","square,diamond,hexagon,circle,triangle","B","A","","","","test","62","true","1","categorize-html","178","558143","0.0-6.0-124.0","24395","202302016","common"
"1726.6000000238419","false","square,hexagon","81","80,81","square,diamond,hexagon,circle,triangle","A","C","","","","test","63","true","1","categorize-html","180","561384","0.0-6.0-126.0","24395","202302016","rare"
"5861.700000047684","false","hexagon,diamond","81","80,81","square,diamond,hexagon,circle,triangle","C","B","","","","test","64","true","1","categorize-html","182","568759","0.0-6.0-128.0","24395","202302016","rare"
"2058.9000000953674","false","hexagon","81","80,81","square,diamond,hexagon,circle,triangle","C","","","","","test","65","true","1","categorize-html","184","572336","0.0-6.0-130.0","24395","202302016","rare"
"958.1000000238419","false","square,diamond","80","80,81","square,diamond,hexagon,circle,triangle","A","B","","","","test","66","true","1","categorize-html","186","574817","0.0-6.0-132.0","24395","202302016","common"
"1161.2000000476837","false","square","80","80,81","square,diamond,hexagon,circle,triangle","A","","","","","test","67","true","1","categorize-html","188","577504","0.0-6.0-134.0","24395","202302016","common"
"1826.1999999284744","false","hexagon,square","81","80,81","square,diamond,hexagon,circle,triangle","C","A","","","","test","68","true","1","categorize-html","190","580865","0.0-6.0-136.0","24395","202302016","rare"
"1081.0999999046326","false","square","81","80,81","square,diamond,hexagon,circle,triangle","A","","","","","test","69","true","1","categorize-html","192","583464","0.0-6.0-138.0","24395","202302016","rare"
"1302.6999999284744","false","diamond","80","80,81","square,diamond,hexagon,circle,triangle","B","","","","","test","70","true","1","categorize-html","194","586297","0.0-6.0-140.0","24395","202302016","common"
"979.6000000238419","false","hexagon","81","80,81","square,diamond,hexagon,circle,triangle","C","","","","","test","71","true","1","categorize-html","196","588800","0.0-6.0-142.0","24395","202302016","rare"
"1509","false","diamond,hexagon","81","80,81","square,diamond,hexagon,circle,triangle","B","C","","","","test","72","true","1","categorize-html","198","591830","0.0-6.0-144.0","24395","202302016","rare"
"4104.100000023842","false","hexagon","81","80,81","square,diamond,hexagon,circle,triangle","C","","","","","test","73","true","1","categorize-html","201","602574","0.0-6.0-147.0","24395","202302016","rare"
"886.3000000715256","false","square","80","80,81","square,diamond,hexagon,circle,triangle","A","","","","","test","74","true","1","categorize-html","203","604974","0.0-6.0-149.0","24395","202302016","common"
"1264.1999999284744","false","diamond,square","80","80,81","square,diamond,hexagon,circle,triangle","B","A","","","","test","75","true","1","categorize-html","205","607751","0.0-6.0-151.0","24395","202302016","common"
"820.3999999761581","false","square,diamond","80","80,81","square,diamond,hexagon,circle,triangle","A","B","","","","test","76","true","1","categorize-html","207","610078","0.0-6.0-153.0","24395","202302016","common"
"822.0999999046326","false","diamond","80","80,81","square,diamond,hexagon,circle,triangle","B","","","","","test","77","true","1","categorize-html","209","612414","0.0-6.0-155.0","24395","202302016","common"
"625.8000000715256","false","hexagon","81","80,81","square,diamond,hexagon,circle,triangle","C","","","","","test","78","true","1","categorize-html","211","614550","0.0-6.0-157.0","24395","202302016","rare"
"2036.6000000238419","false","hexagon,diamond","81","80,81","square,diamond,hexagon,circle,triangle","C","B","","","","test","79","true","1","categorize-html","213","618094","0.0-6.0-159.0","24395","202302016","rare"
"761.1999999284744","false","diamond","80","80,81","square,diamond,hexagon,circle,triangle","B","","","","","test","80","true","1","categorize-html","215","620365","0.0-6.0-161.0","24395","202302016","common"
"681.2000000476837","false","square","80","80,81","square,diamond,hexagon,circle,triangle","A","","","","","test","81","true","1","categorize-html","217","622559","0.0-6.0-163.0","24395","202302016","common"
"990.7999999523163","false","square,hexagon","81","80,81","square,diamond,hexagon,circle,triangle","A","C","","","","test","82","true","1","categorize-html","219","625060","0.0-6.0-165.0","24395","202302016","rare"
"1625.5","false","diamond,hexagon","81","80,81","square,diamond,hexagon,circle,triangle","B","C","","","","test","83","true","1","categorize-html","221","628199","0.0-6.0-167.0","24395","202302016","rare"
"2045.6000000238419","false","hexagon,square","81","80,81","square,diamond,hexagon,circle,triangle","C","A","","","","test","84","true","1","categorize-html","223","631754","0.0-6.0-169.0","24395","202302016","rare"
"697.5","false","diamond,square","80","80,81","square,diamond,hexagon,circle,triangle","B","A","","","","test","85","true","1","categorize-html","225","633991","0.0-6.0-171.0","24395","202302016","common"
"729.0999999046326","false","hexagon,diamond","81","80,81","square,diamond,hexagon,circle,triangle","C","B","","","","test","86","true","1","categorize-html","227","636230","0.0-6.0-173.0","24395","202302016","rare"
"1198.2999999523163","false","square","80","80,81","square,diamond,hexagon,circle,triangle","A","","","","","test","87","true","1","categorize-html","229","638942","0.0-6.0-175.0","24395","202302016","common"
"1217.3999999761581","false","square","80","80,81","square,diamond,hexagon,circle,triangle","A","","","","","test","88","true","1","categorize-html","231","641670","0.0-6.0-177.0","24395","202302016","common"
"760.3999999761581","false","diamond","80","80,81","square,diamond,hexagon,circle,triangle","B","","","","","test","89","true","1","categorize-html","233","643942","0.0-6.0-179.0","24395","202302016","common"
"794.6000000238419","false","hexagon","81","80,81","square,diamond,hexagon,circle,triangle","C","","","","","test","90","true","1","categorize-html","235","646247","0.0-6.0-181.0","24395","202302016","rare"
"814.2000000476837","false","square,hexagon","81","80,81","square,diamond,hexagon,circle,triangle","A","C","","","","test","91","true","1","categorize-html","237","648571","0.0-6.0-183.0","24395","202302016","rare"
"913.3999999761581","false","square,diamond","80","80,81","square,diamond,hexagon,circle,triangle","A","B","","","","test","92","true","1","categorize-html","239","650998","0.0-6.0-185.0","24395","202302016","common"
"729.4000000953674","false","diamond","80","80,81","square,diamond,hexagon,circle,triangle","B","","","","","test","93","true","1","categorize-html","241","653238","0.0-6.0-187.0","24395","202302016","common"
"1331.3000000715256","false","diamond,hexagon","81","80,81","square,diamond,hexagon,circle,triangle","B","C","","","","test","94","true","1","categorize-html","243","656082","0.0-6.0-189.0","24395","202302016","rare"
"2213.7999999523163","false","hexagon,square","80","80,81","square,diamond,hexagon,circle,triangle","C","A","","","","test","95","true","1","categorize-html","245","659812","0.0-6.0-191.0","24395","202302016","common"
"1859.8999999761581","false","hexagon","81","80,81","square,diamond,hexagon,circle,triangle","C","","","","","test","96","true","1","categorize-html","247","663191","0.0-6.0-193.0","24395","202302016","rare"
"1574.3999999761581","false","hexagon,diamond","81","80,81","square,diamond,hexagon,circle,triangle","C","B","","","","test","97","true","1","categorize-html","250","668398","0.0-6.0-196.0","24395","202302016","rare"
"570.1000000238419","false","diamond,square","80","80,81","square,diamond,hexagon,circle,triangle","B","A","","","","test","98","true","1","categorize-html","252","670484","0.0-6.0-198.0","24395","202302016","common"
"580","false","square,hexagon","81","80,81","square,diamond,hexagon,circle,triangle","A","C","","","","test","99","true","1","categorize-html","254","672582","0.0-6.0-200.0","24395","202302016","rare"
"519.3999999761581","false","square","80","80,81","square,diamond,hexagon,circle,triangle","A","","","","","test","100","true","1","categorize-html","256","674614","0.0-6.0-202.0","24395","202302016","common"
"723.6000000238419","false","square,diamond","80","80,81","square,diamond,hexagon,circle,triangle","A","B","","","","test","101","true","1","categorize-html","258","676854","0.0-6.0-204.0","24395","202302016","common"
"980.1000000238419","false","hexagon","81","80,81","square,diamond,hexagon,circle,triangle","C","","","","","test","102","true","1","categorize-html","260","679350","0.0-6.0-206.0","24395","202302016","rare"
"961.7000000476837","false","hexagon,square","81","80,81","square,diamond,hexagon,circle,triangle","C","A","","","","test","103","true","1","categorize-html","262","681822","0.0-6.0-208.0","24395","202302016","rare"
"763.1000000238419","false","square","81","80,81","square,diamond,hexagon,circle,triangle","A","","","","","test","104","true","1","categorize-html","264","684102","0.0-6.0-210.0","24395","202302016","rare"
"542.3000000715256","false","diamond","80","80,81","square,diamond,hexagon,circle,triangle","B","","","","","test","105","true","1","categorize-html","266","686159","0.0-6.0-212.0","24395","202302016","common"
"461.5","false","diamond,hexagon","81","80,81","square,diamond,hexagon,circle,triangle","B","C","","","","test","106","true","1","categorize-html","268","688134","0.0-6.0-214.0","24395","202302016","rare"
"398.09999990463257","false","diamond","80","80,81","square,diamond,hexagon,circle,triangle","B","","","","","test","107","true","1","categorize-html","270","690046","0.0-6.0-216.0","24395","202302016","common"
"596.1000000238419","false","hexagon","81","80,81","square,diamond,hexagon,circle,triangle","C","","","","","test","108","true","1","categorize-html","272","692158","0.0-6.0-218.0","24395","202302016","rare"
"844.3999999761581","false","square,hexagon","81","80,81","square,diamond,hexagon,circle,triangle","A","C","","","","test","109","true","1","categorize-html","274","694519","0.0-6.0-220.0","24395","202302016","rare"
"337.39999997615814","false","hexagon,square","80","80,81","square,diamond,hexagon,circle,triangle","C","A","","","","test","110","true","1","categorize-html","276","696376","0.0-6.0-222.0","24395","202302016","common"
"574.2999999523163","false","diamond","80","80,81","square,diamond,hexagon,circle,triangle","B","","","","","test","111","true","1","categorize-html","278","698470","0.0-6.0-224.0","24395","202302016","common"
"670.7999999523163","false","hexagon,diamond","81","80,81","square,diamond,hexagon,circle,triangle","C","B","","","","test","112","true","1","categorize-html","280","700655","0.0-6.0-226.0","24395","202302016","rare"
"728.2000000476837","false","diamond,hexagon","80","80,81","square,diamond,hexagon,circle,triangle","B","C","","","","test","113","true","1","categorize-html","282","702903","0.0-6.0-228.0","24395","202302016","common"
"564.3000000715256","false","hexagon","81","80,81","square,diamond,hexagon,circle,triangle","C","","","","","test","114","true","1","categorize-html","284","704991","0.0-6.0-230.0","24395","202302016","rare"
"810.1999999284744","false","square,diamond","80","80,81","square,diamond,hexagon,circle,triangle","A","B","","","","test","115","true","1","categorize-html","286","707315","0.0-6.0-232.0","24395","202302016","common"
"1523.0999999046326","false","diamond,square","80","80,81","square,diamond,hexagon,circle,triangle","B","A","","","","test","116","true","1","categorize-html","288","710359","0.0-6.0-234.0","24395","202302016","common"
"840","false","square","80","80,81","square,diamond,hexagon,circle,triangle","A","","","","","test","117","true","1","categorize-html","290","712710","0.0-6.0-236.0","24395","202302016","common"
"668.7999999523163","false","diamond","80","80,81","square,diamond,hexagon,circle,triangle","B","","","","","test","118","true","1","categorize-html","292","714892","0.0-6.0-238.0","24395","202302016","common"
"1020.8999999761581","false","square","81","80,81","square,diamond,hexagon,circle,triangle","A","","","","","test","119","true","1","categorize-html","294","717431","0.0-6.0-240.0","24395","202302016","rare"
"802.3000000715256","false","hexagon","81","80,81","square,diamond,hexagon,circle,triangle","C","","","","","test","120","true","1","categorize-html","296","719751","0.0-6.0-242.0","24395","202302016","rare"
