"rt","correct","stimulus","key_press","keys","symptoms_shuffle","symptom1","symptom2","symptom3","key","category","phase","trial","include","block","trial_type","trial_index","time_elapsed","internal_node_id","ppt","session","abresp"
"2299","false","hexagon,circle,diamond","32","80,81","circle,triangle,hexagon,square,diamond","C","A","E","81","rare","training","1","true","1","categorize-html","4","693808","0.0-4.0-0.0","25251","202301718","none"
"2","false","triangle,circle,square","32","80,81","circle,triangle,hexagon,square,diamond","B","A","D","80","common","training","2","true","1","categorize-html","6","694817","0.0-4.0-2.0","25251","202301718","none"
"2952","false","circle,hexagon,diamond","32","80,81","circle,triangle,hexagon,square,diamond","A","C","E","81","rare","training","3","true","1","categorize-html","8","698775","0.0-4.0-4.0","25251","202301718","none"
"1016","false","square,circle,triangle","32","80,81","circle,triangle,hexagon,square,diamond","D","A","B","80","common","training","4","true","1","categorize-html","10","700796","0.0-4.0-6.0","25251","202301718","none"
"953","false","circle,square,triangle","32","80,81","circle,triangle,hexagon,square,diamond","A","D","B","80","common","training","5","true","1","categorize-html","12","702754","0.0-4.0-8.0","25251","202301718","none"
"1716","false","circle,diamond,hexagon","32","80,81","circle,triangle,hexagon,square,diamond","A","E","C","81","rare","training","6","true","1","categorize-html","14","705475","0.0-4.0-10.0","25251","202301718","none"
"952","false","diamond,circle,hexagon","32","80,81","circle,triangle,hexagon,square,diamond","E","A","C","81","rare","training","7","true","1","categorize-html","16","707433","0.0-4.0-12.0","25251","202301718","none"
"4601","false","square,circle,triangle","32","80,81","circle,triangle,hexagon,square,diamond","D","A","B","80","common","training","8","true","1","categorize-html","18","713040","0.0-4.0-14.0","25251","202301718","none"
"1694","false","diamond,hexagon,circle","32","80,81","circle,triangle,hexagon,square,diamond","E","C","A","81","rare","training","9","true","1","categorize-html","20","715741","0.0-4.0-16.0","25251","202301718","none"
"860.9999999998836","false","circle,square,triangle","32","80,81","circle,triangle,hexagon,square,diamond","A","D","B","80","common","training","10","true","1","categorize-html","22","717607","0.0-4.0-18.0","25251","202301718","none"
"944","false","circle,triangle,square","32","80,81","circle,triangle,hexagon,square,diamond","A","B","D","80","common","training","11","true","1","categorize-html","24","719556","0.0-4.0-20.0","25251","202301718","none"
"1174","false","circle,triangle,square","32","80,81","circle,triangle,hexagon,square,diamond","A","B","D","80","common","training","12","true","1","categorize-html","26","721736","0.0-4.0-22.0","25251","202301718","none"
"1188","false","square,circle,triangle","32","80,81","circle,triangle,hexagon,square,diamond","D","A","B","80","common","training","13","true","1","categorize-html","28","723928","0.0-4.0-24.0","25251","202301718","none"
"1333","false","square,triangle,circle","32","80,81","circle,triangle,hexagon,square,diamond","D","B","A","80","common","training","14","true","1","categorize-html","30","726267","0.0-4.0-26.0","25251","202301718","none"
"1078","false","square,triangle,circle","32","80,81","circle,triangle,hexagon,square,diamond","D","B","A","80","common","training","15","true","1","categorize-html","32","728351","0.0-4.0-28.0","25251","202301718","none"
"425","false","circle,square,triangle","32","80,81","circle,triangle,hexagon,square,diamond","A","D","B","80","common","training","16","true","1","categorize-html","34","729781","0.0-4.0-30.0","25251","202301718","none"
"609","false","triangle,square,circle","32","80,81","circle,triangle,hexagon,square,diamond","B","D","A","80","common","training","17","true","1","categorize-html","36","731396","0.0-4.0-32.0","25251","202301718","none"
"578","false","triangle,circle,square","32","80,81","circle,triangle,hexagon,square,diamond","B","A","D","80","common","training","18","true","1","categorize-html","38","732980","0.0-4.0-34.0","25251","202301718","none"
"509","false","triangle,square,circle","32","80,81","circle,triangle,hexagon,square,diamond","B","D","A","80","common","training","19","true","1","categorize-html","40","734494","0.0-4.0-36.0","25251","202301718","none"
"406","false","triangle,square,circle","32","80,81","circle,triangle,hexagon,square,diamond","B","D","A","80","common","training","20","true","1","categorize-html","42","735904","0.0-4.0-38.0","25251","202301718","none"
"1500","false","circle,triangle,square","32","80,81","circle,triangle,hexagon,square,diamond","A","B","D","80","common","training","21","true","1","categorize-html","44","738410","0.0-4.0-40.0","25251","202301718","none"
"671","false","square,triangle,circle","32","80,81","circle,triangle,hexagon,square,diamond","D","B","A","80","common","training","22","true","1","categorize-html","46","740087","0.0-4.0-42.0","25251","202301718","none"
"512.9999999998836","false","triangle,circle,square","32","80,81","circle,triangle,hexagon,square,diamond","B","A","D","80","common","training","23","true","1","categorize-html","48","741605","0.0-4.0-44.0","25251","202301718","none"
"353","false","hexagon,diamond,circle","32","80,81","circle,triangle,hexagon,square,diamond","C","E","A","81","rare","training","24","true","1","categorize-html","50","742964","0.0-4.0-46.0","25251","202301718","none"
"4909","false","triangle,square,circle","32","80,81","circle,triangle,hexagon,square,diamond","B","D","A","80","common","training","25","true","2","categorize-html","53","754103","0.0-4.0-49.0","25251","202301718","none"
"1011","false","square,circle,triangle","32","80,81","circle,triangle,hexagon,square,diamond","D","A","B","80","common","training","26","true","2","categorize-html","55","756120","0.0-4.0-51.0","25251","202301718","none"
"null","false","circle,square,triangle","null","80,81","circle,triangle,hexagon,square,diamond","A","D","B","80","common","training","27","true","2","categorize-html","57","762126","0.0-4.0-53.0","25251","202301718","none"
"1784","false","circle,square,triangle","32","80,81","circle,triangle,hexagon,square,diamond","A","D","B","80","common","training","28","true","2","categorize-html","59","764915","0.0-4.0-55.0","25251","202301718","none"
"839","false","square,triangle,circle","32","80,81","circle,triangle,hexagon,square,diamond","D","B","A","80","common","training","29","true","2","categorize-html","61","766760","0.0-4.0-57.0","25251","202301718","none"
"947","false","triangle,square,circle","32","80,81","circle,triangle,hexagon,square,diamond","B","D","A","80","common","training","30","true","2","categorize-html","63","768713","0.0-4.0-59.0","25251","202301718","none"
"375","false","circle,triangle,square","32","80,81","circle,triangle,hexagon,square,diamond","A","B","D","80","common","training","31","true","2","categorize-html","65","770093","0.0-4.0-61.0","25251","202301718","none"
"429","false","hexagon,circle,diamond","32","80,81","circle,triangle,hexagon,square,diamond","C","A","E","81","rare","training","32","true","2","categorize-html","67","771528","0.0-4.0-63.0","25251","202301718","none"
"679","false","triangle,circle,square","32","80,81","circle,triangle,hexagon,square,diamond","B","A","D","80","common","training","33","true","2","categorize-html","69","773210","0.0-4.0-65.0","25251","202301718","none"
"479.9999999998836","false","diamond,hexagon,circle","32","80,81","circle,triangle,hexagon,square,diamond","E","C","A","81","rare","training","34","true","2","categorize-html","71","774697","0.0-4.0-67.0","25251","202301718","none"
"394.9999999998836","false","triangle,circle,square","32","80,81","circle,triangle,hexagon,square,diamond","B","A","D","80","common","training","35","true","2","categorize-html","73","776097","0.0-4.0-69.0","25251","202301718","none"
"383","false","triangle,circle,square","32","80,81","circle,triangle,hexagon,square,diamond","B","A","D","80","common","training","36","true","2","categorize-html","75","777484","0.0-4.0-71.0","25251","202301718","none"
"1032.9999999998836","false","circle,hexagon,diamond","32","80,81","circle,triangle,hexagon,square,diamond","A","C","E","81","rare","training","37","true","2","categorize-html","77","779523","0.0-4.0-73.0","25251","202301718","none"
"576","false","square,triangle,circle","32","80,81","circle,triangle,hexagon,square,diamond","D","B","A","80","common","training","38","true","2","categorize-html","79","781104","0.0-4.0-75.0","25251","202301718","none"
"593","false","circle,diamond,hexagon","32","80,81","circle,triangle,hexagon,square,diamond","A","E","C","81","rare","training","39","true","2","categorize-html","81","782702","0.0-4.0-77.0","25251","202301718","none"
"496","false","circle,triangle,square","32","80,81","circle,triangle,hexagon,square,diamond","A","B","D","80","common","training","40","true","2","categorize-html","83","784204","0.0-4.0-79.0","25251","202301718","none"
"405.0000000001164","false","square,circle,triangle","32","80,81","circle,triangle,hexagon,square,diamond","D","A","B","80","common","training","41","true","2","categorize-html","85","785615","0.0-4.0-81.0","25251","202301718","none"
"530","false","hexagon,diamond,circle","32","80,81","circle,triangle,hexagon,square,diamond","C","E","A","81","rare","training","42","true","2","categorize-html","87","787150","0.0-4.0-83.0","25251","202301718","none"
"459.0000000001164","false","circle,square,triangle","32","80,81","circle,triangle,hexagon,square,diamond","A","D","B","80","common","training","43","true","2","categorize-html","89","788613","0.0-4.0-85.0","25251","202301718","none"
"421.9999999998836","false","square,triangle,circle","32","80,81","circle,triangle,hexagon,square,diamond","D","B","A","80","common","training","44","true","2","categorize-html","91","790041","0.0-4.0-87.0","25251","202301718","none"
"575.9999999998836","false","triangle,square,circle","32","80,81","circle,triangle,hexagon,square,diamond","B","D","A","80","common","training","45","true","2","categorize-html","93","791624","0.0-4.0-89.0","25251","202301718","none"
"828","false","square,circle,triangle","32","80,81","circle,triangle,hexagon,square,diamond","D","A","B","80","common","training","46","true","2","categorize-html","95","793457","0.0-4.0-91.0","25251","202301718","none"
"715","false","diamond,circle,hexagon","32","80,81","circle,triangle,hexagon,square,diamond","E","A","C","81","rare","training","47","true","2","categorize-html","97","795178","0.0-4.0-93.0","25251","202301718","none"
"455","false","circle,triangle,square","32","80,81","circle,triangle,hexagon,square,diamond","A","B","D","80","common","training","48","true","2","categorize-html","99","796639","0.0-4.0-95.0","25251","202301718","none"
"2674","false","circle,triangle","80","80,81","circle,triangle,hexagon,square,diamond","A","B","","","","test","1","true","1","categorize-html","103","839044","0.0-6.0-0.0","25251","202301718","common"
"2136.9999999998836","false","circle","80","80,81","circle,triangle,hexagon,square,diamond","A","","","","","test","2","true","1","categorize-html","105","842688","0.0-6.0-2.0","25251","202301718","common"
"3183.9999999998836","false","triangle","80","80,81","circle,triangle,hexagon,square,diamond","B","","","","","test","3","true","1","categorize-html","107","847378","0.0-6.0-4.0","25251","202301718","common"
"2510","false","hexagon,triangle","81","80,81","circle,triangle,hexagon,square,diamond","C","B","","","","test","4","true","1","categorize-html","109","851394","0.0-6.0-6.0","25251","202301718","rare"
"4188.000000000116","false","circle","80","80,81","circle,triangle,hexagon,square,diamond","A","","","","","test","5","true","1","categorize-html","111","857088","0.0-6.0-8.0","25251","202301718","common"
"7337","false","circle,hexagon","81","80,81","circle,triangle,hexagon,square,diamond","A","C","","","","test","6","true","1","categorize-html","113","865932","0.0-6.0-10.0","25251","202301718","rare"
"1949","false","hexagon","81","80,81","circle,triangle,hexagon,square,diamond","C","","","","","test","7","true","1","categorize-html","115","869386","0.0-6.0-12.0","25251","202301718","rare"
"1482","false","triangle","80","80,81","circle,triangle,hexagon,square,diamond","B","","","","","test","8","true","1","categorize-html","117","872375","0.0-6.0-14.0","25251","202301718","common"
"2762","false","hexagon,circle","81","80,81","circle,triangle,hexagon,square,diamond","C","A","","","","test","9","true","1","categorize-html","119","876644","0.0-6.0-16.0","25251","202301718","rare"
"1793","false","hexagon","81","80,81","circle,triangle,hexagon,square,diamond","C","","","","","test","10","true","1","categorize-html","121","879942","0.0-6.0-18.0","25251","202301718","rare"
"4892","false","triangle,hexagon","81","80,81","circle,triangle,hexagon,square,diamond","B","C","","","","test","11","true","1","categorize-html","123","886339","0.0-6.0-20.0","25251","202301718","rare"
"1573","false","triangle,circle","80","80,81","circle,triangle,hexagon,square,diamond","B","A","","","","test","12","true","1","categorize-html","125","889418","0.0-6.0-22.0","25251","202301718","common"
"2303.9999999998836","false","triangle","80","80,81","circle,triangle,hexagon,square,diamond","B","","","","","test","13","true","1","categorize-html","127","893227","0.0-6.0-24.0","25251","202301718","common"
"1410","false","hexagon","81","80,81","circle,triangle,hexagon,square,diamond","C","","","","","test","14","true","1","categorize-html","129","896144","0.0-6.0-26.0","25251","202301718","rare"
"2212","false","hexagon","81","80,81","circle,triangle,hexagon,square,diamond","C","","","","","test","15","true","1","categorize-html","131","899862","0.0-6.0-28.0","25251","202301718","rare"
"933","false","circle","80","80,81","circle,triangle,hexagon,square,diamond","A","","","","","test","16","true","1","categorize-html","133","902299","0.0-6.0-30.0","25251","202301718","common"
"1754","false","hexagon,triangle","81","80,81","circle,triangle,hexagon,square,diamond","C","B","","","","test","17","true","1","categorize-html","135","905560","0.0-6.0-32.0","25251","202301718","rare"
"1070","false","circle","80","80,81","circle,triangle,hexagon,square,diamond","A","","","","","test","18","true","1","categorize-html","137","908136","0.0-6.0-34.0","25251","202301718","common"
"1823","false","hexagon,circle","81","80,81","circle,triangle,hexagon,square,diamond","C","A","","","","test","19","true","1","categorize-html","139","911463","0.0-6.0-36.0","25251","202301718","rare"
"1615","false","triangle,hexagon","81","80,81","circle,triangle,hexagon,square,diamond","B","C","","","","test","20","true","1","categorize-html","141","914585","0.0-6.0-38.0","25251","202301718","rare"
"1841","false","circle,hexagon","81","80,81","circle,triangle,hexagon,square,diamond","A","C","","","","test","21","true","1","categorize-html","143","917933","0.0-6.0-40.0","25251","202301718","rare"
"1424","false","circle,triangle","80","80,81","circle,triangle,hexagon,square,diamond","A","B","","","","test","22","true","1","categorize-html","145","920861","0.0-6.0-42.0","25251","202301718","common"
"984","false","triangle","80","80,81","circle,triangle,hexagon,square,diamond","B","","","","","test","23","true","1","categorize-html","147","923351","0.0-6.0-44.0","25251","202301718","common"
"572","false","triangle,circle","80","80,81","circle,triangle,hexagon,square,diamond","B","A","","","","test","24","true","1","categorize-html","149","925429","0.0-6.0-46.0","25251","202301718","common"
"2548","false","hexagon,triangle","81","80,81","circle,triangle,hexagon,square,diamond","C","B","","","","test","25","true","1","categorize-html","152","931305","0.0-6.0-49.0","25251","202301718","rare"
"478.9999999998836","false","circle,triangle","80","80,81","circle,triangle,hexagon,square,diamond","A","B","","","","test","26","true","1","categorize-html","154","933289","0.0-6.0-51.0","25251","202301718","common"
"487.0000000001164","false","triangle,hexagon","81","80,81","circle,triangle,hexagon,square,diamond","B","C","","","","test","27","true","1","categorize-html","156","935282","0.0-6.0-53.0","25251","202301718","rare"
"630","false","hexagon","81","80,81","circle,triangle,hexagon,square,diamond","C","","","","","test","28","true","1","categorize-html","158","937420","0.0-6.0-55.0","25251","202301718","rare"
"1545.0000000001164","false","circle","80","80,81","circle,triangle,hexagon,square,diamond","A","","","","","test","29","true","1","categorize-html","160","940470","0.0-6.0-57.0","25251","202301718","common"
"644.0000000001164","false","triangle","80","80,81","circle,triangle,hexagon,square,diamond","B","","","","","test","30","true","1","categorize-html","162","942620","0.0-6.0-59.0","25251","202301718","common"
"921.0000000001164","false","circle,hexagon","81","80,81","circle,triangle,hexagon,square,diamond","A","C","","","","test","31","true","1","categorize-html","164","945048","0.0-6.0-61.0","25251","202301718","rare"
"531.0000000001164","false","circle","80","80,81","circle,triangle,hexagon,square,diamond","A","","","","","test","32","true","1","categorize-html","166","947085","0.0-6.0-63.0","25251","202301718","common"
"1088","false","hexagon,circle","81","80,81","circle,triangle,hexagon,square,diamond","C","A","","","","test","33","true","1","categorize-html","168","949679","0.0-6.0-65.0","25251","202301718","rare"
"621.0000000001164","false","triangle","80","80,81","circle,triangle,hexagon,square,diamond","B","","","","","test","34","true","1","categorize-html","170","951806","0.0-6.0-67.0","25251","202301718","common"
"808","false","triangle,circle","80","80,81","circle,triangle,hexagon,square,diamond","B","A","","","","test","35","true","1","categorize-html","172","954120","0.0-6.0-69.0","25251","202301718","common"
"688","false","hexagon","81","80,81","circle,triangle,hexagon,square,diamond","C","","","","","test","36","true","1","categorize-html","174","956313","0.0-6.0-71.0","25251","202301718","rare"
"1018","false","hexagon,triangle","81","80,81","circle,triangle,hexagon,square,diamond","C","B","","","","test","37","true","1","categorize-html","176","958838","0.0-6.0-73.0","25251","202301718","rare"
"786","false","triangle","80","80,81","circle,triangle,hexagon,square,diamond","B","","","","","test","38","true","1","categorize-html","178","961128","0.0-6.0-75.0","25251","202301718","common"
"564","false","circle","80","80,81","circle,triangle,hexagon,square,diamond","A","","","","","test","39","true","1","categorize-html","180","963199","0.0-6.0-77.0","25251","202301718","common"
"662.9999999998836","false","triangle,circle","80","80,81","circle,triangle,hexagon,square,diamond","B","A","","","","test","40","true","1","categorize-html","182","965367","0.0-6.0-79.0","25251","202301718","common"
"587","false","triangle,hexagon","81","80,81","circle,triangle,hexagon,square,diamond","B","C","","","","test","41","true","1","categorize-html","184","967460","0.0-6.0-81.0","25251","202301718","rare"
"627","false","circle,hexagon","81","80,81","circle,triangle,hexagon,square,diamond","A","C","","","","test","42","true","1","categorize-html","186","969594","0.0-6.0-83.0","25251","202301718","rare"
"741.0000000001164","false","circle","80","80,81","circle,triangle,hexagon,square,diamond","A","","","","","test","43","true","1","categorize-html","188","971838","0.0-6.0-85.0","25251","202301718","common"
"485.9999999998836","false","circle,triangle","80","80,81","circle,triangle,hexagon,square,diamond","A","B","","","","test","44","true","1","categorize-html","190","973830","0.0-6.0-87.0","25251","202301718","common"
"555","false","hexagon,circle","81","80,81","circle,triangle,hexagon,square,diamond","C","A","","","","test","45","true","1","categorize-html","192","975891","0.0-6.0-89.0","25251","202301718","rare"
"865.0000000001164","false","hexagon","81","80,81","circle,triangle,hexagon,square,diamond","C","","","","","test","46","true","1","categorize-html","194","978263","0.0-6.0-91.0","25251","202301718","rare"
"679","false","triangle","80","80,81","circle,triangle,hexagon,square,diamond","B","","","","","test","47","true","1","categorize-html","196","980448","0.0-6.0-93.0","25251","202301718","common"
"583","false","hexagon","81","80,81","circle,triangle,hexagon,square,diamond","C","","","","","test","48","true","1","categorize-html","198","982538","0.0-6.0-95.0","25251","202301718","rare"
"549","false","triangle,circle","80","80,81","circle,triangle,hexagon,square,diamond","B","A","","","","test","49","true","1","categorize-html","201","986486","0.0-6.0-98.0","25251","202301718","common"
"979.9999999998836","false","hexagon","81","80,81","circle,triangle,hexagon,square,diamond","C","","","","","test","50","true","1","categorize-html","203","988972","0.0-6.0-100.0","25251","202301718","rare"
"607.9999999998836","false","triangle","80","80,81","circle,triangle,hexagon,square,diamond","B","","","","","test","51","true","1","categorize-html","205","991085","0.0-6.0-102.0","25251","202301718","common"
"712","false","circle","80","80,81","circle,triangle,hexagon,square,diamond","A","","","","","test","52","true","1","categorize-html","207","993303","0.0-6.0-104.0","25251","202301718","common"
"851.9999999998836","false","hexagon","80","80,81","circle,triangle,hexagon,square,diamond","C","","","","","test","53","true","1","categorize-html","209","995662","0.0-6.0-106.0","25251","202301718","common"
"654","false","circle,hexagon","81","80,81","circle,triangle,hexagon,square,diamond","A","C","","","","test","54","true","1","categorize-html","211","997821","0.0-6.0-108.0","25251","202301718","rare"
"570","false","circle,triangle","80","80,81","circle,triangle,hexagon,square,diamond","A","B","","","","test","55","true","1","categorize-html","213","999896","0.0-6.0-110.0","25251","202301718","common"
"736","false","triangle","80","80,81","circle,triangle,hexagon,square,diamond","B","","","","","test","56","true","1","categorize-html","215","1002138","0.0-6.0-112.0","25251","202301718","common"
"685","false","triangle,hexagon","81","80,81","circle,triangle,hexagon,square,diamond","B","C","","","","test","57","true","1","categorize-html","217","1004328","0.0-6.0-114.0","25251","202301718","rare"
"584","false","circle","80","80,81","circle,triangle,hexagon,square,diamond","A","","","","","test","58","true","1","categorize-html","219","1006417","0.0-6.0-116.0","25251","202301718","common"
"570","false","hexagon,triangle","81","80,81","circle,triangle,hexagon,square,diamond","C","B","","","","test","59","true","1","categorize-html","221","1008492","0.0-6.0-118.0","25251","202301718","rare"
"1307","false","hexagon,circle","81","80,81","circle,triangle,hexagon,square,diamond","C","A","","","","test","60","true","1","categorize-html","223","1011304","0.0-6.0-120.0","25251","202301718","rare"
"689","false","triangle,circle","80","80,81","circle,triangle,hexagon,square,diamond","B","A","","","","test","61","true","1","categorize-html","225","1013498","0.0-6.0-122.0","25251","202301718","common"
"3646","false","circle","80","80,81","circle,triangle,hexagon,square,diamond","A","","","","","test","62","true","1","categorize-html","227","1018648","0.0-6.0-124.0","25251","202301718","common"
"536","false","hexagon","81","80,81","circle,triangle,hexagon,square,diamond","C","","","","","test","63","true","1","categorize-html","229","1020689","0.0-6.0-126.0","25251","202301718","rare"
"1004","false","hexagon,circle","81","80,81","circle,triangle,hexagon,square,diamond","C","A","","","","test","64","true","1","categorize-html","231","1023199","0.0-6.0-128.0","25251","202301718","rare"
"803.0000000001164","false","hexagon,triangle","80","80,81","circle,triangle,hexagon,square,diamond","C","B","","","","test","65","true","1","categorize-html","233","1025509","0.0-6.0-130.0","25251","202301718","common"
"1780","false","circle,hexagon","81","80,81","circle,triangle,hexagon,square,diamond","A","C","","","","test","66","true","1","categorize-html","235","1028793","0.0-6.0-132.0","25251","202301718","rare"
"677","false","triangle","80","80,81","circle,triangle,hexagon,square,diamond","B","","","","","test","67","true","1","categorize-html","237","1030976","0.0-6.0-134.0","25251","202301718","common"
"1142","false","circle,triangle","80","80,81","circle,triangle,hexagon,square,diamond","A","B","","","","test","68","true","1","categorize-html","239","1033622","0.0-6.0-136.0","25251","202301718","common"
"511","false","hexagon","81","80,81","circle,triangle,hexagon,square,diamond","C","","","","","test","69","true","1","categorize-html","241","1035638","0.0-6.0-138.0","25251","202301718","rare"
"1158.9999999998836","false","triangle,hexagon","81","80,81","circle,triangle,hexagon,square,diamond","B","C","","","","test","70","true","1","categorize-html","243","1038302","0.0-6.0-140.0","25251","202301718","rare"
"766.9999999997672","false","triangle","80","80,81","circle,triangle,hexagon,square,diamond","B","","","","","test","71","true","1","categorize-html","245","1040574","0.0-6.0-142.0","25251","202301718","common"
"527","false","circle","80","80,81","circle,triangle,hexagon,square,diamond","A","","","","","test","72","true","1","categorize-html","247","1042607","0.0-6.0-144.0","25251","202301718","common"
"1193","false","triangle","80","80,81","circle,triangle,hexagon,square,diamond","B","","","","","test","73","true","1","categorize-html","250","1046366","0.0-6.0-147.0","25251","202301718","common"
"625.0000000001164","false","circle","80","80,81","circle,triangle,hexagon,square,diamond","A","","","","","test","74","true","1","categorize-html","252","1048497","0.0-6.0-149.0","25251","202301718","common"
"740","false","hexagon,circle","81","80,81","circle,triangle,hexagon,square,diamond","C","A","","","","test","75","true","1","categorize-html","254","1050743","0.0-6.0-151.0","25251","202301718","rare"
"960","false","circle,triangle","80","80,81","circle,triangle,hexagon,square,diamond","A","B","","","","test","76","true","1","categorize-html","256","1053209","0.0-6.0-153.0","25251","202301718","common"
"671","false","circle,hexagon","81","80,81","circle,triangle,hexagon,square,diamond","A","C","","","","test","77","true","1","categorize-html","258","1055386","0.0-6.0-155.0","25251","202301718","rare"
"498","false","triangle,circle","80","80,81","circle,triangle,hexagon,square,diamond","B","A","","","","test","78","true","1","categorize-html","260","1057391","0.0-6.0-157.0","25251","202301718","common"
"773","false","triangle,hexagon","81","80,81","circle,triangle,hexagon,square,diamond","B","C","","","","test","79","true","1","categorize-html","262","1059669","0.0-6.0-159.0","25251","202301718","rare"
"418","false","triangle","80","80,81","circle,triangle,hexagon,square,diamond","B","","","","","test","80","true","1","categorize-html","264","1061593","0.0-6.0-161.0","25251","202301718","common"
"522","false","hexagon,triangle","81","80,81","circle,triangle,hexagon,square,diamond","C","B","","","","test","81","true","1","categorize-html","266","1063622","0.0-6.0-163.0","25251","202301718","rare"
"584","false","hexagon","81","80,81","circle,triangle,hexagon,square,diamond","C","","","","","test","82","true","1","categorize-html","268","1065712","0.0-6.0-165.0","25251","202301718","rare"
"389","false","hexagon","81","80,81","circle,triangle,hexagon,square,diamond","C","","","","","test","83","true","1","categorize-html","270","1067605","0.0-6.0-167.0","25251","202301718","rare"
"330","false","circle","80","80,81","circle,triangle,hexagon,square,diamond","A","","","","","test","84","true","1","categorize-html","272","1069440","0.0-6.0-169.0","25251","202301718","common"
"486","false","hexagon","81","80,81","circle,triangle,hexagon,square,diamond","C","","","","","test","85","true","1","categorize-html","274","1071432","0.0-6.0-171.0","25251","202301718","rare"
"738","false","triangle","80","80,81","circle,triangle,hexagon,square,diamond","B","","","","","test","86","true","1","categorize-html","276","1073676","0.0-6.0-173.0","25251","202301718","common"
"599","false","triangle,hexagon","81","80,81","circle,triangle,hexagon,square,diamond","B","C","","","","test","87","true","1","categorize-html","278","1075780","0.0-6.0-175.0","25251","202301718","rare"
"506","false","circle","80","80,81","circle,triangle,hexagon,square,diamond","A","","","","","test","88","true","1","categorize-html","280","1077793","0.0-6.0-177.0","25251","202301718","common"
"474","false","hexagon","81","80,81","circle,triangle,hexagon,square,diamond","C","","","","","test","89","true","1","categorize-html","282","1079773","0.0-6.0-179.0","25251","202301718","rare"
"598","false","circle,triangle","80","80,81","circle,triangle,hexagon,square,diamond","A","B","","","","test","90","true","1","categorize-html","284","1081877","0.0-6.0-181.0","25251","202301718","common"
"518.0000000002328","false","triangle,circle","80","80,81","circle,triangle,hexagon,square,diamond","B","A","","","","test","91","true","1","categorize-html","286","1083899","0.0-6.0-183.0","25251","202301718","common"
"406","false","circle,hexagon","81","80,81","circle,triangle,hexagon,square,diamond","A","C","","","","test","92","true","1","categorize-html","288","1085811","0.0-6.0-185.0","25251","202301718","rare"
"547","false","hexagon,circle","81","80,81","circle,triangle,hexagon,square,diamond","C","A","","","","test","93","true","1","categorize-html","290","1087864","0.0-6.0-187.0","25251","202301718","rare"
"496","false","circle","80","80,81","circle,triangle,hexagon,square,diamond","A","","","","","test","94","true","1","categorize-html","292","1089865","0.0-6.0-189.0","25251","202301718","common"
"427.99999999976717","false","triangle","81","80,81","circle,triangle,hexagon,square,diamond","B","","","","","test","95","true","1","categorize-html","294","1091798","0.0-6.0-191.0","25251","202301718","rare"
"586.0000000002328","false","hexagon,triangle","81","80,81","circle,triangle,hexagon,square,diamond","C","B","","","","test","96","true","1","categorize-html","296","1093890","0.0-6.0-193.0","25251","202301718","rare"
"4078","false","hexagon,circle","81","80,81","circle,triangle,hexagon,square,diamond","C","A","","","","test","97","true","1","categorize-html","299","1100754","0.0-6.0-196.0","25251","202301718","rare"
"1370","false","triangle","80","80,81","circle,triangle,hexagon,square,diamond","B","","","","","test","98","true","1","categorize-html","301","1103630","0.0-6.0-198.0","25251","202301718","common"
"832","false","circle,triangle","80","80,81","circle,triangle,hexagon,square,diamond","A","B","","","","test","99","true","1","categorize-html","303","1105967","0.0-6.0-200.0","25251","202301718","common"
"517","false","hexagon","81","80,81","circle,triangle,hexagon,square,diamond","C","","","","","test","100","true","1","categorize-html","305","1107991","0.0-6.0-202.0","25251","202301718","rare"
"783","false","triangle","81","80,81","circle,triangle,hexagon,square,diamond","B","","","","","test","101","true","1","categorize-html","307","1110278","0.0-6.0-204.0","25251","202301718","rare"
"885","false","circle","80","80,81","circle,triangle,hexagon,square,diamond","A","","","","","test","102","true","1","categorize-html","309","1112669","0.0-6.0-206.0","25251","202301718","common"
"712","false","triangle,circle","80","80,81","circle,triangle,hexagon,square,diamond","B","A","","","","test","103","true","1","categorize-html","311","1114886","0.0-6.0-208.0","25251","202301718","common"
"657","false","hexagon","81","80,81","circle,triangle,hexagon,square,diamond","C","","","","","test","104","true","1","categorize-html","313","1117048","0.0-6.0-210.0","25251","202301718","rare"
"791","false","circle","80","80,81","circle,triangle,hexagon,square,diamond","A","","","","","test","105","true","1","categorize-html","315","1119345","0.0-6.0-212.0","25251","202301718","common"
"829.9999999997672","false","triangle,hexagon","81","80,81","circle,triangle,hexagon,square,diamond","B","C","","","","test","106","true","1","categorize-html","317","1121681","0.0-6.0-214.0","25251","202301718","rare"
"641.9999999997672","false","circle,hexagon","81","80,81","circle,triangle,hexagon,square,diamond","A","C","","","","test","107","true","1","categorize-html","319","1123829","0.0-6.0-216.0","25251","202301718","rare"
"833","false","hexagon,triangle","81","80,81","circle,triangle,hexagon,square,diamond","C","B","","","","test","108","true","1","categorize-html","321","1126167","0.0-6.0-218.0","25251","202301718","rare"
"638","false","triangle","81","80,81","circle,triangle,hexagon,square,diamond","B","","","","","test","109","true","1","categorize-html","323","1128309","0.0-6.0-220.0","25251","202301718","rare"
"463","false","circle","80","80,81","circle,triangle,hexagon,square,diamond","A","","","","","test","110","true","1","categorize-html","325","1130278","0.0-6.0-222.0","25251","202301718","common"
"534","false","circle,hexagon","81","80,81","circle,triangle,hexagon,square,diamond","A","C","","","","test","111","true","1","categorize-html","327","1132318","0.0-6.0-224.0","25251","202301718","rare"
"464","false","hexagon","81","80,81","circle,triangle,hexagon,square,diamond","C","","","","","test","112","true","1","categorize-html","329","1134288","0.0-6.0-226.0","25251","202301718","rare"
"534","false","hexagon,triangle","81","80,81","circle,triangle,hexagon,square,diamond","C","B","","","","test","113","true","1","categorize-html","331","1136327","0.0-6.0-228.0","25251","202301718","rare"
"1195","false","triangle","80","80,81","circle,triangle,hexagon,square,diamond","B","","","","","test","114","true","1","categorize-html","333","1139026","0.0-6.0-230.0","25251","202301718","common"
"526","false","triangle,circle","80","80,81","circle,triangle,hexagon,square,diamond","B","A","","","","test","115","true","1","categorize-html","335","1141056","0.0-6.0-232.0","25251","202301718","common"
"680","false","triangle,hexagon","81","80,81","circle,triangle,hexagon,square,diamond","B","C","","","","test","116","true","1","categorize-html","337","1143242","0.0-6.0-234.0","25251","202301718","rare"
"2374","false","hexagon","81","80,81","circle,triangle,hexagon,square,diamond","C","","","","","test","117","true","1","categorize-html","339","1147122","0.0-6.0-236.0","25251","202301718","rare"
"702.0000000002328","false","circle,triangle","80","80,81","circle,triangle,hexagon,square,diamond","A","B","","","","test","118","true","1","categorize-html","341","1149330","0.0-6.0-238.0","25251","202301718","common"
"476.00000000023283","false","circle","80","80,81","circle,triangle,hexagon,square,diamond","A","","","","","test","119","true","1","categorize-html","343","1151311","0.0-6.0-240.0","25251","202301718","common"
"544","false","hexagon,circle","81","80,81","circle,triangle,hexagon,square,diamond","C","A","","","","test","120","true","1","categorize-html","345","1153361","0.0-6.0-242.0","25251","202301718","rare"
