"rt","correct","stimulus","key_press","keys","symptoms_shuffle","symptom1","symptom2","symptom3","key","category","phase","trial","include","block","trial_type","trial_index","time_elapsed","internal_node_id","ppt","session","abresp"
"4008.399999976158","false","circle,square,hexagon","32","80,81","circle,square,triangle,hexagon,diamond","A","B","D","80","common","training","1","true","1","categorize-html","4","96813","0.0-4.0-0.0","24360","202301610","none"
"3450.6999999284744","false","circle,hexagon,square","32","80,81","circle,square,triangle,hexagon,diamond","A","D","B","80","common","training","2","true","1","categorize-html","6","101275","0.0-4.0-2.0","24360","202301610","none"
"2306.2000000476837","false","circle,square,hexagon","32","80,81","circle,square,triangle,hexagon,diamond","A","B","D","80","common","training","3","true","1","categorize-html","8","104595","0.0-4.0-4.0","24360","202301610","none"
"1659","false","hexagon,square,circle","32","80,81","circle,square,triangle,hexagon,diamond","D","B","A","80","common","training","4","true","1","categorize-html","10","107268","0.0-4.0-6.0","24360","202301610","none"
"2786.5999999046326","false","circle,triangle,diamond","32","80,81","circle,square,triangle,hexagon,diamond","A","C","E","81","rare","training","5","true","1","categorize-html","12","111066","0.0-4.0-8.0","24360","202301610","none"
"1943.7000000476837","false","triangle,circle,diamond","32","80,81","circle,square,triangle,hexagon,diamond","C","A","E","81","rare","training","6","true","1","categorize-html","14","114024","0.0-4.0-10.0","24360","202301610","none"
"2139.100000023842","false","square,circle,hexagon","32","80,81","circle,square,triangle,hexagon,diamond","B","A","D","80","common","training","7","true","1","categorize-html","16","117174","0.0-4.0-12.0","24360","202301610","none"
"1954.0999999046326","false","hexagon,circle,square","32","80,81","circle,square,triangle,hexagon,diamond","D","A","B","80","common","training","8","true","1","categorize-html","18","120142","0.0-4.0-14.0","24360","202301610","none"
"2412.2999999523163","false","hexagon,circle,square","32","80,81","circle,square,triangle,hexagon,diamond","D","A","B","80","common","training","9","true","1","categorize-html","20","123561","0.0-4.0-16.0","24360","202301610","none"
"1306.7000000476837","false","hexagon,circle,square","32","80,81","circle,square,triangle,hexagon,diamond","D","A","B","80","common","training","10","true","1","categorize-html","22","125881","0.0-4.0-18.0","24360","202301610","none"
"1250.2000000476837","false","square,hexagon,circle","32","80,81","circle,square,triangle,hexagon,diamond","B","D","A","80","common","training","11","true","1","categorize-html","24","128141","0.0-4.0-20.0","24360","202301610","none"
"1246.2999999523163","false","circle,square,hexagon","32","80,81","circle,square,triangle,hexagon,diamond","A","B","D","80","common","training","12","true","1","categorize-html","26","130401","0.0-4.0-22.0","24360","202301610","none"
"1074.2000000476837","false","square,hexagon,circle","32","80,81","circle,square,triangle,hexagon,diamond","B","D","A","80","common","training","13","true","1","categorize-html","28","132489","0.0-4.0-24.0","24360","202301610","none"
"null","false","triangle,diamond,circle","null","80,81","circle,square,triangle,hexagon,diamond","C","E","A","81","rare","training","14","true","1","categorize-html","30","138504","0.0-4.0-26.0","24360","202301610","none"
"2144","false","square,circle,hexagon","32","80,81","circle,square,triangle,hexagon,diamond","B","A","D","80","common","training","15","true","1","categorize-html","32","141661","0.0-4.0-28.0","24360","202301610","none"
"1913","false","hexagon,square,circle","32","80,81","circle,square,triangle,hexagon,diamond","D","B","A","80","common","training","16","true","1","categorize-html","34","144588","0.0-4.0-30.0","24360","202301610","none"
"1140.6999999284744","false","circle,hexagon,square","32","80,81","circle,square,triangle,hexagon,diamond","A","D","B","80","common","training","17","true","1","categorize-html","36","146743","0.0-4.0-32.0","24360","202301610","none"
"1369","false","square,hexagon,circle","32","80,81","circle,square,triangle,hexagon,diamond","B","D","A","80","common","training","18","true","1","categorize-html","38","149122","0.0-4.0-34.0","24360","202301610","none"
"1429.7999999523163","false","square,circle,hexagon","32","80,81","circle,square,triangle,hexagon,diamond","B","A","D","80","common","training","19","true","1","categorize-html","40","151564","0.0-4.0-36.0","24360","202301610","none"
"1636.7999999523163","false","circle,diamond,triangle","32","80,81","circle,square,triangle,hexagon,diamond","A","E","C","81","rare","training","20","true","1","categorize-html","42","154210","0.0-4.0-38.0","24360","202301610","none"
"2571.7000000476837","false","diamond,triangle,circle","32","80,81","circle,square,triangle,hexagon,diamond","E","C","A","81","rare","training","21","true","1","categorize-html","44","157795","0.0-4.0-40.0","24360","202301610","none"
"1862.2999999523163","false","hexagon,square,circle","32","80,81","circle,square,triangle,hexagon,diamond","D","B","A","80","common","training","22","true","1","categorize-html","46","160667","0.0-4.0-42.0","24360","202301610","none"
"2336.100000023842","false","diamond,circle,triangle","32","80,81","circle,square,triangle,hexagon,diamond","E","A","C","81","rare","training","23","true","1","categorize-html","48","164014","0.0-4.0-44.0","24360","202301610","none"
"1889.6000000238419","false","circle,hexagon,square","32","80,81","circle,square,triangle,hexagon,diamond","A","D","B","80","common","training","24","true","1","categorize-html","50","166916","0.0-4.0-46.0","24360","202301610","none"
"2871.3000000715256","false","diamond,circle,triangle","32","80,81","circle,square,triangle,hexagon,diamond","E","A","C","81","rare","training","25","true","2","categorize-html","53","181171","0.0-4.0-49.0","24360","202301610","none"
"956.5","false","circle,square,hexagon","32","80,81","circle,square,triangle,hexagon,diamond","A","B","D","80","common","training","26","true","2","categorize-html","55","183141","0.0-4.0-51.0","24360","202301610","none"
"2355.5","false","hexagon,circle,square","32","80,81","circle,square,triangle,hexagon,diamond","D","A","B","80","common","training","27","true","2","categorize-html","57","186509","0.0-4.0-53.0","24360","202301610","none"
"2185.1999999284744","false","circle,square,hexagon","32","80,81","circle,square,triangle,hexagon,diamond","A","B","D","80","common","training","28","true","2","categorize-html","59","189704","0.0-4.0-55.0","24360","202301610","none"
"4255.5","false","triangle,diamond,circle","32","80,81","circle,square,triangle,hexagon,diamond","C","E","A","81","rare","training","29","true","2","categorize-html","61","194971","0.0-4.0-57.0","24360","202301610","none"
"581.1999999284744","false","diamond,triangle,circle","32","80,81","circle,square,triangle,hexagon,diamond","E","C","A","81","rare","training","30","true","2","categorize-html","63","196565","0.0-4.0-59.0","24360","202301610","none"
"1465.3999999761581","false","hexagon,circle,square","32","80,81","circle,square,triangle,hexagon,diamond","D","A","B","80","common","training","31","true","2","categorize-html","65","199041","0.0-4.0-61.0","24360","202301610","none"
"1625.6000000238419","false","circle,triangle,diamond","32","80,81","circle,square,triangle,hexagon,diamond","A","C","E","81","rare","training","32","true","2","categorize-html","67","201676","0.0-4.0-63.0","24360","202301610","none"
"695.2000000476837","false","circle,diamond,triangle","32","80,81","circle,square,triangle,hexagon,diamond","A","E","C","81","rare","training","33","true","2","categorize-html","69","203383","0.0-4.0-65.0","24360","202301610","none"
"616.8999999761581","false","square,hexagon,circle","32","80,81","circle,square,triangle,hexagon,diamond","B","D","A","80","common","training","34","true","2","categorize-html","71","205009","0.0-4.0-67.0","24360","202301610","none"
"419.39999997615814","false","square,circle,hexagon","32","80,81","circle,square,triangle,hexagon,diamond","B","A","D","80","common","training","35","true","2","categorize-html","73","206438","0.0-4.0-69.0","24360","202301610","none"
"362","false","square,circle,hexagon","32","80,81","circle,square,triangle,hexagon,diamond","B","A","D","80","common","training","36","true","2","categorize-html","75","207808","0.0-4.0-71.0","24360","202301610","none"
"1329.3999999761581","false","circle,hexagon,square","32","80,81","circle,square,triangle,hexagon,diamond","A","D","B","80","common","training","37","true","2","categorize-html","77","210150","0.0-4.0-73.0","24360","202301610","none"
"1241.3000000715256","false","triangle,circle,diamond","32","80,81","circle,square,triangle,hexagon,diamond","C","A","E","81","rare","training","38","true","2","categorize-html","79","212404","0.0-4.0-75.0","24360","202301610","none"
"318.2999999523163","false","circle,hexagon,square","32","80,81","circle,square,triangle,hexagon,diamond","A","D","B","80","common","training","39","true","2","categorize-html","81","213729","0.0-4.0-77.0","24360","202301610","none"
"354.39999997615814","false","circle,hexagon,square","32","80,81","circle,square,triangle,hexagon,diamond","A","D","B","80","common","training","40","true","2","categorize-html","83","215090","0.0-4.0-79.0","24360","202301610","none"
"946.3999999761581","false","hexagon,square,circle","32","80,81","circle,square,triangle,hexagon,diamond","D","B","A","80","common","training","41","true","2","categorize-html","85","217049","0.0-4.0-81.0","24360","202301610","none"
"995.7000000476837","false","square,hexagon,circle","32","80,81","circle,square,triangle,hexagon,diamond","B","D","A","80","common","training","42","true","2","categorize-html","87","219058","0.0-4.0-83.0","24360","202301610","none"
"373","false","square,circle,hexagon","32","80,81","circle,square,triangle,hexagon,diamond","B","A","D","80","common","training","43","true","2","categorize-html","89","220441","0.0-4.0-85.0","24360","202301610","none"
"2489","false","hexagon,square,circle","32","80,81","circle,square,triangle,hexagon,diamond","D","B","A","80","common","training","44","true","2","categorize-html","91","223938","0.0-4.0-87.0","24360","202301610","none"
"657.7000000476837","false","square,hexagon,circle","32","80,81","circle,square,triangle,hexagon,diamond","B","D","A","80","common","training","45","true","2","categorize-html","93","225607","0.0-4.0-89.0","24360","202301610","none"
"927.1000000238419","false","hexagon,square,circle","32","80,81","circle,square,triangle,hexagon,diamond","D","B","A","80","common","training","46","true","2","categorize-html","95","227545","0.0-4.0-91.0","24360","202301610","none"
"1362.8000000715256","false","circle,square,hexagon","32","80,81","circle,square,triangle,hexagon,diamond","A","B","D","80","common","training","47","true","2","categorize-html","97","229914","0.0-4.0-93.0","24360","202301610","none"
"1211.2000000476837","false","hexagon,circle,square","32","80,81","circle,square,triangle,hexagon,diamond","D","A","B","80","common","training","48","true","2","categorize-html","99","232138","0.0-4.0-95.0","24360","202301610","none"
"3251.7000000476837","false","circle","80","80,81","circle,square,triangle,hexagon,diamond","A","","","","","test","1","true","1","categorize-html","103","401314","0.0-6.0-0.0","24360","202301610","common"
"2776.2999999523163","false","square","80","80,81","circle,square,triangle,hexagon,diamond","B","","","","","test","2","true","1","categorize-html","105","405601","0.0-6.0-2.0","24360","202301610","common"
"1452.8999999761581","false","triangle,square","81","80,81","circle,square,triangle,hexagon,diamond","C","B","","","","test","3","true","1","categorize-html","107","408563","0.0-6.0-4.0","24360","202301610","rare"
"1877.8999999761581","false","square,triangle","81","80,81","circle,square,triangle,hexagon,diamond","B","C","","","","test","4","true","1","categorize-html","109","411955","0.0-6.0-6.0","24360","202301610","rare"
"1121.7000000476837","false","triangle","80","80,81","circle,square,triangle,hexagon,diamond","C","","","","","test","5","true","1","categorize-html","111","414590","0.0-6.0-8.0","24360","202301610","common"
"1596.7000000476837","false","square,circle","80","80,81","circle,square,triangle,hexagon,diamond","B","A","","","","test","6","true","1","categorize-html","113","417697","0.0-6.0-10.0","24360","202301610","common"
"1141.6000000238419","false","circle","80","80,81","circle,square,triangle,hexagon,diamond","A","","","","","test","7","true","1","categorize-html","115","420349","0.0-6.0-12.0","24360","202301610","common"
"751.7000000476837","false","triangle,circle","81","80,81","circle,square,triangle,hexagon,diamond","C","A","","","","test","8","true","1","categorize-html","117","422614","0.0-6.0-14.0","24360","202301610","rare"
"854.1999999284744","false","square","80","80,81","circle,square,triangle,hexagon,diamond","B","","","","","test","9","true","1","categorize-html","119","424974","0.0-6.0-16.0","24360","202301610","common"
"1122.8000000715256","false","circle,square","80","80,81","circle,square,triangle,hexagon,diamond","A","B","","","","test","10","true","1","categorize-html","121","427611","0.0-6.0-18.0","24360","202301610","common"
"700.4000000953674","false","triangle","81","80,81","circle,square,triangle,hexagon,diamond","C","","","","","test","11","true","1","categorize-html","123","429825","0.0-6.0-20.0","24360","202301610","rare"
"1187.7000000476837","false","circle,triangle","81","80,81","circle,square,triangle,hexagon,diamond","A","C","","","","test","12","true","1","categorize-html","125","432527","0.0-6.0-22.0","24360","202301610","rare"
"673.6999999284744","false","square","80","80,81","circle,square,triangle,hexagon,diamond","B","","","","","test","13","true","1","categorize-html","127","434711","0.0-6.0-24.0","24360","202301610","common"
"1853","false","triangle","81","80,81","circle,square,triangle,hexagon,diamond","C","","","","","test","14","true","1","categorize-html","129","438078","0.0-6.0-26.0","24360","202301610","rare"
"497.40000009536743","false","square,triangle","81","80,81","circle,square,triangle,hexagon,diamond","B","C","","","","test","15","true","1","categorize-html","131","440086","0.0-6.0-28.0","24360","202301610","rare"
"550.7000000476837","false","triangle,square","81","80,81","circle,square,triangle,hexagon,diamond","C","B","","","","test","16","true","1","categorize-html","133","442148","0.0-6.0-30.0","24360","202301610","rare"
"980","false","circle,square","80","80,81","circle,square,triangle,hexagon,diamond","A","B","","","","test","17","true","1","categorize-html","135","444637","0.0-6.0-32.0","24360","202301610","common"
"769","false","triangle,circle","81","80,81","circle,square,triangle,hexagon,diamond","C","A","","","","test","18","true","1","categorize-html","137","446918","0.0-6.0-34.0","24360","202301610","rare"
"528.7000000476837","false","triangle","81","80,81","circle,square,triangle,hexagon,diamond","C","","","","","test","19","true","1","categorize-html","139","448957","0.0-6.0-36.0","24360","202301610","rare"
"1830","false","circle","80","80,81","circle,square,triangle,hexagon,diamond","A","","","","","test","20","true","1","categorize-html","141","452298","0.0-6.0-38.0","24360","202301610","common"
"437.10000002384186","false","circle","80","80,81","circle,square,triangle,hexagon,diamond","A","","","","","test","21","true","1","categorize-html","143","454245","0.0-6.0-40.0","24360","202301610","common"
"1159.2000000476837","false","square","80","80,81","circle,square,triangle,hexagon,diamond","B","","","","","test","22","true","1","categorize-html","145","456915","0.0-6.0-42.0","24360","202301610","common"
"2089.100000023842","false","circle,triangle","81","80,81","circle,square,triangle,hexagon,diamond","A","C","","","","test","23","true","1","categorize-html","147","460511","0.0-6.0-44.0","24360","202301610","rare"
"606","false","square,circle","80","80,81","circle,square,triangle,hexagon,diamond","B","A","","","","test","24","true","1","categorize-html","149","462628","0.0-6.0-46.0","24360","202301610","common"
"1241.1000000238419","false","square","80","80,81","circle,square,triangle,hexagon,diamond","B","","","","","test","25","true","1","categorize-html","152","467559","0.0-6.0-49.0","24360","202301610","common"
"662.0999999046326","false","triangle,circle","81","80,81","circle,square,triangle,hexagon,diamond","C","A","","","","test","26","true","1","categorize-html","154","469736","0.0-6.0-51.0","24360","202301610","rare"
"420.90000009536743","false","square,triangle","81","80,81","circle,square,triangle,hexagon,diamond","B","C","","","","test","27","true","1","categorize-html","156","471671","0.0-6.0-53.0","24360","202301610","rare"
"719.3999999761581","false","circle","80","80,81","circle,square,triangle,hexagon,diamond","A","","","","","test","28","true","1","categorize-html","158","473904","0.0-6.0-55.0","24360","202301610","common"
"424.60000002384186","false","circle","80","80,81","circle,square,triangle,hexagon,diamond","A","","","","","test","29","true","1","categorize-html","160","475842","0.0-6.0-57.0","24360","202301610","common"
"717.9000000953674","false","square,circle","80","80,81","circle,square,triangle,hexagon,diamond","B","A","","","","test","30","true","1","categorize-html","162","478073","0.0-6.0-59.0","24360","202301610","common"
"518.7000000476837","false","square","80","80,81","circle,square,triangle,hexagon,diamond","B","","","","","test","31","true","1","categorize-html","164","480106","0.0-6.0-61.0","24360","202301610","common"
"354.60000002384186","false","triangle","81","80,81","circle,square,triangle,hexagon,diamond","C","","","","","test","32","true","1","categorize-html","166","481970","0.0-6.0-63.0","24360","202301610","rare"
"855.6000000238419","false","circle,square","80","80,81","circle,square,triangle,hexagon,diamond","A","B","","","","test","33","true","1","categorize-html","168","484340","0.0-6.0-65.0","24360","202301610","common"
"776.6000000238419","false","circle,triangle","81","80,81","circle,square,triangle,hexagon,diamond","A","C","","","","test","34","true","1","categorize-html","170","486630","0.0-6.0-67.0","24360","202301610","rare"
"491.59999990463257","false","triangle,square","81","80,81","circle,square,triangle,hexagon,diamond","C","B","","","","test","35","true","1","categorize-html","172","488630","0.0-6.0-69.0","24360","202301610","rare"
"448.39999997615814","false","triangle","81","80,81","circle,square,triangle,hexagon,diamond","C","","","","","test","36","true","1","categorize-html","174","490589","0.0-6.0-71.0","24360","202301610","rare"
"867.5","false","square,circle","80","80,81","circle,square,triangle,hexagon,diamond","B","A","","","","test","37","true","1","categorize-html","176","492971","0.0-6.0-73.0","24360","202301610","common"
"1423.7000000476837","false","circle,square","80","80,81","circle,square,triangle,hexagon,diamond","A","B","","","","test","38","true","1","categorize-html","178","495909","0.0-6.0-75.0","24360","202301610","common"
"925.5","false","triangle,square","81","80,81","circle,square,triangle,hexagon,diamond","C","B","","","","test","39","true","1","categorize-html","180","498346","0.0-6.0-77.0","24360","202301610","rare"
"549.7999999523163","false","square,triangle","81","80,81","circle,square,triangle,hexagon,diamond","B","C","","","","test","40","true","1","categorize-html","182","500410","0.0-6.0-79.0","24360","202301610","rare"
"606.8999999761581","false","circle,triangle","81","80,81","circle,square,triangle,hexagon,diamond","A","C","","","","test","41","true","1","categorize-html","184","502531","0.0-6.0-81.0","24360","202301610","rare"
"514.5","false","triangle","81","80,81","circle,square,triangle,hexagon,diamond","C","","","","","test","42","true","1","categorize-html","186","504558","0.0-6.0-83.0","24360","202301610","rare"
"614.7999999523163","false","triangle,circle","81","80,81","circle,square,triangle,hexagon,diamond","C","A","","","","test","43","true","1","categorize-html","188","506683","0.0-6.0-85.0","24360","202301610","rare"
"438.89999997615814","false","triangle","81","80,81","circle,square,triangle,hexagon,diamond","C","","","","","test","44","true","1","categorize-html","190","508636","0.0-6.0-87.0","24360","202301610","rare"
"1388.2999999523163","false","circle","80","80,81","circle,square,triangle,hexagon,diamond","A","","","","","test","45","true","1","categorize-html","192","511537","0.0-6.0-89.0","24360","202301610","common"
"1130.7999999523163","false","square","80","80,81","circle,square,triangle,hexagon,diamond","B","","","","","test","46","true","1","categorize-html","194","514177","0.0-6.0-91.0","24360","202301610","common"
"417.10000002384186","false","circle","80","80,81","circle,square,triangle,hexagon,diamond","A","","","","","test","47","true","1","categorize-html","196","516102","0.0-6.0-93.0","24360","202301610","common"
"558.8000000715256","false","square","80","80,81","circle,square,triangle,hexagon,diamond","B","","","","","test","48","true","1","categorize-html","198","518175","0.0-6.0-95.0","24360","202301610","common"
"1320","false","square","80","80,81","circle,square,triangle,hexagon,diamond","B","","","","","test","49","true","1","categorize-html","201","544307","0.0-6.0-98.0","24360","202301610","common"
"407.10000002384186","false","square","80","80,81","circle,square,triangle,hexagon,diamond","B","","","","","test","50","true","1","categorize-html","203","546228","0.0-6.0-100.0","24360","202301610","common"
"420.10000002384186","false","triangle,circle","81","80,81","circle,square,triangle,hexagon,diamond","C","A","","","","test","51","true","1","categorize-html","205","548162","0.0-6.0-102.0","24360","202301610","rare"
"533.6000000238419","false","square,triangle","81","80,81","circle,square,triangle,hexagon,diamond","B","C","","","","test","52","true","1","categorize-html","207","550210","0.0-6.0-104.0","24360","202301610","rare"
"512.1000000238419","false","circle,triangle","81","80,81","circle,square,triangle,hexagon,diamond","A","C","","","","test","53","true","1","categorize-html","209","552235","0.0-6.0-106.0","24360","202301610","rare"
"443.2999999523163","false","circle,square","80","80,81","circle,square,triangle,hexagon,diamond","A","B","","","","test","54","true","1","categorize-html","211","554191","0.0-6.0-108.0","24360","202301610","common"
"457.6999999284744","false","triangle","81","80,81","circle,square,triangle,hexagon,diamond","C","","","","","test","55","true","1","categorize-html","213","556155","0.0-6.0-110.0","24360","202301610","rare"
"640.9000000953674","false","circle","80","80,81","circle,square,triangle,hexagon,diamond","A","","","","","test","56","true","1","categorize-html","215","558307","0.0-6.0-112.0","24360","202301610","common"
"425.39999997615814","false","square,circle","80","80,81","circle,square,triangle,hexagon,diamond","B","A","","","","test","57","true","1","categorize-html","217","560243","0.0-6.0-114.0","24360","202301610","common"
"499.10000002384186","false","triangle","81","80,81","circle,square,triangle,hexagon,diamond","C","","","","","test","58","true","1","categorize-html","219","562249","0.0-6.0-116.0","24360","202301610","rare"
"349.59999990463257","false","triangle,square","81","80,81","circle,square,triangle,hexagon,diamond","C","B","","","","test","59","true","1","categorize-html","221","564114","0.0-6.0-118.0","24360","202301610","rare"
"637.1999999284744","false","circle","80","80,81","circle,square,triangle,hexagon,diamond","A","","","","","test","60","true","1","categorize-html","223","566265","0.0-6.0-120.0","24360","202301610","common"
"498.10000002384186","false","circle","80","80,81","circle,square,triangle,hexagon,diamond","A","","","","","test","61","true","1","categorize-html","225","568277","0.0-6.0-122.0","24360","202301610","common"
"585.8000000715256","false","triangle","81","80,81","circle,square,triangle,hexagon,diamond","C","","","","","test","62","true","1","categorize-html","227","570374","0.0-6.0-124.0","24360","202301610","rare"
"620.3999999761581","false","circle,square","80","80,81","circle,square,triangle,hexagon,diamond","A","B","","","","test","63","true","1","categorize-html","229","572506","0.0-6.0-126.0","24360","202301610","common"
"431","false","triangle,square","81","80,81","circle,square,triangle,hexagon,diamond","C","B","","","","test","64","true","1","categorize-html","231","574443","0.0-6.0-128.0","24360","202301610","rare"
"395.7999999523163","false","circle,triangle","81","80,81","circle,square,triangle,hexagon,diamond","A","C","","","","test","65","true","1","categorize-html","233","576351","0.0-6.0-130.0","24360","202301610","rare"
"548.7000000476837","false","square,circle","80","80,81","circle,square,triangle,hexagon,diamond","B","A","","","","test","66","true","1","categorize-html","235","578411","0.0-6.0-132.0","24360","202301610","common"
"434.90000009536743","false","circle","80","80,81","circle,square,triangle,hexagon,diamond","A","","","","","test","67","true","1","categorize-html","237","580354","0.0-6.0-134.0","24360","202301610","common"
"470.40000009536743","false","square,triangle","81","80,81","circle,square,triangle,hexagon,diamond","B","C","","","","test","68","true","1","categorize-html","239","582339","0.0-6.0-136.0","24360","202301610","rare"
"605.1999999284744","false","triangle","81","80,81","circle,square,triangle,hexagon,diamond","C","","","","","test","69","true","1","categorize-html","241","584455","0.0-6.0-138.0","24360","202301610","rare"
"522.1000000238419","false","square","80","80,81","circle,square,triangle,hexagon,diamond","B","","","","","test","70","true","1","categorize-html","243","586491","0.0-6.0-140.0","24360","202301610","common"
"743.2999999523163","false","square","80","80,81","circle,square,triangle,hexagon,diamond","B","","","","","test","71","true","1","categorize-html","245","588742","0.0-6.0-142.0","24360","202301610","common"
"439.5","false","triangle,circle","81","80,81","circle,square,triangle,hexagon,diamond","C","A","","","","test","72","true","1","categorize-html","247","590692","0.0-6.0-144.0","24360","202301610","rare"
"826.3999999761581","false","square,circle","80","80,81","circle,square,triangle,hexagon,diamond","B","A","","","","test","73","true","1","categorize-html","250","594646","0.0-6.0-147.0","24360","202301610","common"
"863.3999999761581","false","square","80","80,81","circle,square,triangle,hexagon,diamond","B","","","","","test","74","true","1","categorize-html","252","597023","0.0-6.0-149.0","24360","202301610","common"
"565.5999999046326","false","triangle","81","80,81","circle,square,triangle,hexagon,diamond","C","","","","","test","75","true","1","categorize-html","254","599103","0.0-6.0-151.0","24360","202301610","rare"
"525.7999999523163","false","circle","80","80,81","circle,square,triangle,hexagon,diamond","A","","","","","test","76","true","1","categorize-html","256","601135","0.0-6.0-153.0","24360","202301610","common"
"461.7999999523163","false","circle,square","80","80,81","circle,square,triangle,hexagon,diamond","A","B","","","","test","77","true","1","categorize-html","258","603104","0.0-6.0-155.0","24360","202301610","common"
"542.8999999761581","false","triangle,circle","81","80,81","circle,square,triangle,hexagon,diamond","C","A","","","","test","78","true","1","categorize-html","260","605159","0.0-6.0-157.0","24360","202301610","rare"
"603","false","square","80","80,81","circle,square,triangle,hexagon,diamond","B","","","","","test","79","true","1","categorize-html","262","607270","0.0-6.0-159.0","24360","202301610","common"
"480","false","triangle","81","80,81","circle,square,triangle,hexagon,diamond","C","","","","","test","80","true","1","categorize-html","264","609264","0.0-6.0-161.0","24360","202301610","rare"
"428","false","square,triangle","81","80,81","circle,square,triangle,hexagon,diamond","B","C","","","","test","81","true","1","categorize-html","266","611205","0.0-6.0-163.0","24360","202301610","rare"
"495.2000000476837","false","circle,triangle","81","80,81","circle,square,triangle,hexagon,diamond","A","C","","","","test","82","true","1","categorize-html","268","613212","0.0-6.0-165.0","24360","202301610","rare"
"515.3999999761581","false","circle","80","80,81","circle,square,triangle,hexagon,diamond","A","","","","","test","83","true","1","categorize-html","270","615241","0.0-6.0-167.0","24360","202301610","common"
"442.2999999523163","false","triangle,square","81","80,81","circle,square,triangle,hexagon,diamond","C","B","","","","test","84","true","1","categorize-html","272","617194","0.0-6.0-169.0","24360","202301610","rare"
"630.7000000476837","false","square","81","80,81","circle,square,triangle,hexagon,diamond","B","","","","","test","85","true","1","categorize-html","274","619334","0.0-6.0-171.0","24360","202301610","rare"
"460.1999999284744","false","square,triangle","81","80,81","circle,square,triangle,hexagon,diamond","B","C","","","","test","86","true","1","categorize-html","276","621304","0.0-6.0-173.0","24360","202301610","rare"
"577.0999999046326","false","circle,square","80","80,81","circle,square,triangle,hexagon,diamond","A","B","","","","test","87","true","1","categorize-html","278","623396","0.0-6.0-175.0","24360","202301610","common"
"561.5","false","triangle,circle","81","80,81","circle,square,triangle,hexagon,diamond","C","A","","","","test","88","true","1","categorize-html","280","625469","0.0-6.0-177.0","24360","202301610","rare"
"1266.7000000476837","false","square,circle","80","80,81","circle,square,triangle,hexagon,diamond","B","A","","","","test","89","true","1","categorize-html","282","628243","0.0-6.0-179.0","24360","202301610","common"
"1148.3000000715256","false","circle","80","80,81","circle,square,triangle,hexagon,diamond","A","","","","","test","90","true","1","categorize-html","284","630906","0.0-6.0-181.0","24360","202301610","common"
"462.40000009536743","false","triangle","81","80,81","circle,square,triangle,hexagon,diamond","C","","","","","test","91","true","1","categorize-html","286","632878","0.0-6.0-183.0","24360","202301610","rare"
"940.7000000476837","false","triangle,square","81","80,81","circle,square,triangle,hexagon,diamond","C","B","","","","test","92","true","1","categorize-html","288","635325","0.0-6.0-185.0","24360","202301610","rare"
"622.7000000476837","false","square","80","80,81","circle,square,triangle,hexagon,diamond","B","","","","","test","93","true","1","categorize-html","290","637457","0.0-6.0-187.0","24360","202301610","common"
"737.2000000476837","false","circle","80","80,81","circle,square,triangle,hexagon,diamond","A","","","","","test","94","true","1","categorize-html","292","639709","0.0-6.0-189.0","24360","202301610","common"
"642.3999999761581","false","circle,triangle","81","80,81","circle,square,triangle,hexagon,diamond","A","C","","","","test","95","true","1","categorize-html","294","641862","0.0-6.0-191.0","24360","202301610","rare"
"543.4000000953674","false","triangle","81","80,81","circle,square,triangle,hexagon,diamond","C","","","","","test","96","true","1","categorize-html","296","643919","0.0-6.0-193.0","24360","202301610","rare"
"819.6000000238419","false","square,triangle","81","80,81","circle,square,triangle,hexagon,diamond","B","C","","","","test","97","true","1","categorize-html","299","647628","0.0-6.0-196.0","24360","202301610","rare"
"374.5","false","circle,triangle","81","80,81","circle,square,triangle,hexagon,diamond","A","C","","","","test","98","true","1","categorize-html","301","649512","0.0-6.0-198.0","24360","202301610","rare"
"541.1000000238419","false","triangle,square","81","80,81","circle,square,triangle,hexagon,diamond","C","B","","","","test","99","true","1","categorize-html","303","651565","0.0-6.0-200.0","24360","202301610","rare"
"413.8000000715256","false","triangle,circle","81","80,81","circle,square,triangle,hexagon,diamond","C","A","","","","test","100","true","1","categorize-html","305","653490","0.0-6.0-202.0","24360","202301610","rare"
"448","false","circle","80","80,81","circle,square,triangle,hexagon,diamond","A","","","","","test","101","true","1","categorize-html","307","655449","0.0-6.0-204.0","24360","202301610","common"
"646.5999999046326","false","square,circle","80","80,81","circle,square,triangle,hexagon,diamond","B","A","","","","test","102","true","1","categorize-html","309","657609","0.0-6.0-206.0","24360","202301610","common"
"1135.8999999761581","false","square","80","80,81","circle,square,triangle,hexagon,diamond","B","","","","","test","103","true","1","categorize-html","311","660255","0.0-6.0-208.0","24360","202301610","common"
"343.2000000476837","false","square","80","80,81","circle,square,triangle,hexagon,diamond","B","","","","","test","104","true","1","categorize-html","313","662110","0.0-6.0-210.0","24360","202301610","common"
"377.7999999523163","false","circle","80","80,81","circle,square,triangle,hexagon,diamond","A","","","","","test","105","true","1","categorize-html","315","664001","0.0-6.0-212.0","24360","202301610","common"
"684","false","circle,square","80","80,81","circle,square,triangle,hexagon,diamond","A","B","","","","test","106","true","1","categorize-html","317","666195","0.0-6.0-214.0","24360","202301610","common"
"457.89999997615814","false","triangle","81","80,81","circle,square,triangle,hexagon,diamond","C","","","","","test","107","true","1","categorize-html","319","668162","0.0-6.0-216.0","24360","202301610","rare"
"436","false","triangle","81","80,81","circle,square,triangle,hexagon,diamond","C","","","","","test","108","true","1","categorize-html","321","670109","0.0-6.0-218.0","24360","202301610","rare"
"485.39999997615814","false","circle","80","80,81","circle,square,triangle,hexagon,diamond","A","","","","","test","109","true","1","categorize-html","323","672109","0.0-6.0-220.0","24360","202301610","common"
"380.5","false","triangle,circle","81","80,81","circle,square,triangle,hexagon,diamond","C","A","","","","test","110","true","1","categorize-html","325","674005","0.0-6.0-222.0","24360","202301610","rare"
"354.7000000476837","false","triangle","81","80,81","circle,square,triangle,hexagon,diamond","C","","","","","test","111","true","1","categorize-html","327","675872","0.0-6.0-224.0","24360","202301610","rare"
"604.2999999523163","false","square,triangle","81","80,81","circle,square,triangle,hexagon,diamond","B","C","","","","test","112","true","1","categorize-html","329","677987","0.0-6.0-226.0","24360","202301610","rare"
"676.9000000953674","false","square,circle","80","80,81","circle,square,triangle,hexagon,diamond","B","A","","","","test","113","true","1","categorize-html","331","680175","0.0-6.0-228.0","24360","202301610","common"
"497.8000000715256","false","square","80","80,81","circle,square,triangle,hexagon,diamond","B","","","","","test","114","true","1","categorize-html","333","682186","0.0-6.0-230.0","24360","202301610","common"
"353.7000000476837","false","triangle","81","80,81","circle,square,triangle,hexagon,diamond","C","","","","","test","115","true","1","categorize-html","335","684050","0.0-6.0-232.0","24360","202301610","rare"
"531.1999999284744","false","circle,square","80","80,81","circle,square,triangle,hexagon,diamond","A","B","","","","test","116","true","1","categorize-html","337","686096","0.0-6.0-234.0","24360","202301610","common"
"522.8999999761581","false","circle,triangle","81","80,81","circle,square,triangle,hexagon,diamond","A","C","","","","test","117","true","1","categorize-html","339","688133","0.0-6.0-236.0","24360","202301610","rare"
"570.2999999523163","false","triangle,square","81","80,81","circle,square,triangle,hexagon,diamond","C","B","","","","test","118","true","1","categorize-html","341","690216","0.0-6.0-238.0","24360","202301610","rare"
"637.7000000476837","false","circle","80","80,81","circle,square,triangle,hexagon,diamond","A","","","","","test","119","true","1","categorize-html","343","692369","0.0-6.0-240.0","24360","202301610","common"
"687.7000000476837","false","square","80","80,81","circle,square,triangle,hexagon,diamond","B","","","","","test","120","true","1","categorize-html","345","694571","0.0-6.0-242.0","24360","202301610","common"
