"rt","correct","stimulus","key_press","keys","symptoms_shuffle","symptom1","symptom2","symptom3","key","category","phase","trial","include","block","trial_type","trial_index","time_elapsed","internal_node_id","ppt","session","abresp"
"null","false","circle,triangle,square","null","80,81","triangle,circle,hexagon,square,diamond","B","A","D","80","common","training","1","true","1","categorize-html","4","79047","0.0-4.0-0.0","24132","202301919","none"
"3132.5","false","hexagon,diamond,triangle","32","80,81","triangle,circle,hexagon,square,diamond","C","E","A","81","rare","training","2","true","1","categorize-html","6","83190","0.0-4.0-2.0","24132","202301919","none"
"3689.8999996185303","false","diamond,triangle,hexagon","32","80,81","triangle,circle,hexagon,square,diamond","E","A","C","81","rare","training","3","true","1","categorize-html","8","87923","0.0-4.0-4.0","24132","202301919","none"
"4062.0999999046326","false","triangle,diamond,hexagon","32","80,81","triangle,circle,hexagon,square,diamond","A","E","C","81","rare","training","4","true","1","categorize-html","10","93015","0.0-4.0-6.0","24132","202301919","none"
"2474.2999997138977","false","square,triangle,circle","32","80,81","triangle,circle,hexagon,square,diamond","D","A","B","80","common","training","5","true","1","categorize-html","12","96507","0.0-4.0-8.0","24132","202301919","none"
"1948.5","false","triangle,circle,square","32","80,81","triangle,circle,hexagon,square,diamond","A","B","D","80","common","training","6","true","1","categorize-html","14","99474","0.0-4.0-10.0","24132","202301919","none"
"2296.800000190735","false","triangle,hexagon,diamond","32","80,81","triangle,circle,hexagon,square,diamond","A","C","E","81","rare","training","7","true","1","categorize-html","16","102794","0.0-4.0-12.0","24132","202301919","none"
"2275.5999999046326","false","triangle,square,circle","32","80,81","triangle,circle,hexagon,square,diamond","A","D","B","80","common","training","8","true","1","categorize-html","18","106102","0.0-4.0-14.0","24132","202301919","none"
"1785.2999997138977","false","circle,square,triangle","32","80,81","triangle,circle,hexagon,square,diamond","B","D","A","80","common","training","9","true","1","categorize-html","20","108909","0.0-4.0-16.0","24132","202301919","none"
"2386.5999999046326","false","triangle,square,circle","32","80,81","triangle,circle,hexagon,square,diamond","A","D","B","80","common","training","10","true","1","categorize-html","22","112321","0.0-4.0-18.0","24132","202301919","none"
"1476.3000001907349","false","diamond,hexagon,triangle","32","80,81","triangle,circle,hexagon,square,diamond","E","C","A","81","rare","training","11","true","1","categorize-html","24","114832","0.0-4.0-20.0","24132","202301919","none"
"1930","false","square,triangle,circle","32","80,81","triangle,circle,hexagon,square,diamond","D","A","B","80","common","training","12","true","1","categorize-html","26","117793","0.0-4.0-22.0","24132","202301919","none"
"1899.5","false","triangle,square,circle","32","80,81","triangle,circle,hexagon,square,diamond","A","D","B","80","common","training","13","true","1","categorize-html","28","120735","0.0-4.0-24.0","24132","202301919","none"
"1790.7999997138977","false","circle,square,triangle","32","80,81","triangle,circle,hexagon,square,diamond","B","D","A","80","common","training","14","true","1","categorize-html","30","123559","0.0-4.0-26.0","24132","202301919","none"
"1449.4000000953674","false","square,circle,triangle","32","80,81","triangle,circle,hexagon,square,diamond","D","B","A","80","common","training","15","true","1","categorize-html","32","126040","0.0-4.0-28.0","24132","202301919","none"
"1704.3999996185303","false","triangle,circle,square","32","80,81","triangle,circle,hexagon,square,diamond","A","B","D","80","common","training","16","true","1","categorize-html","34","128779","0.0-4.0-30.0","24132","202301919","none"
"1250.7000002861023","false","hexagon,triangle,diamond","32","80,81","triangle,circle,hexagon,square,diamond","C","A","E","81","rare","training","17","true","1","categorize-html","36","131059","0.0-4.0-32.0","24132","202301919","none"
"1650.5999999046326","false","triangle,circle,square","32","80,81","triangle,circle,hexagon,square,diamond","A","B","D","80","common","training","18","true","1","categorize-html","38","133749","0.0-4.0-34.0","24132","202301919","none"
"1176","false","circle,triangle,square","32","80,81","triangle,circle,hexagon,square,diamond","B","A","D","80","common","training","19","true","1","categorize-html","40","135951","0.0-4.0-36.0","24132","202301919","none"
"1192","false","circle,square,triangle","32","80,81","triangle,circle,hexagon,square,diamond","B","D","A","80","common","training","20","true","1","categorize-html","42","138174","0.0-4.0-38.0","24132","202301919","none"
"382.19999980926514","false","circle,triangle,square","32","80,81","triangle,circle,hexagon,square,diamond","B","A","D","80","common","training","21","true","1","categorize-html","44","139592","0.0-4.0-40.0","24132","202301919","none"
"400","false","square,circle,triangle","32","80,81","triangle,circle,hexagon,square,diamond","D","B","A","80","common","training","22","true","1","categorize-html","46","141026","0.0-4.0-42.0","24132","202301919","none"
"332.90000009536743","false","square,circle,triangle","32","80,81","triangle,circle,hexagon,square,diamond","D","B","A","80","common","training","23","true","1","categorize-html","48","142384","0.0-4.0-44.0","24132","202301919","none"
"855.3999996185303","false","square,triangle,circle","32","80,81","triangle,circle,hexagon,square,diamond","D","A","B","80","common","training","24","true","1","categorize-html","50","144268","0.0-4.0-46.0","24132","202301919","none"
"5514.199999809265","false","hexagon,triangle","81","80,81","triangle,circle,hexagon,square,diamond","C","A","","","","test","1","true","1","categorize-html","54","180324","0.0-6.0-0.0","24132","202301919","rare"
"4039.5999999046326","false","hexagon,circle","80","80,81","triangle,circle,hexagon,square,diamond","C","B","","","","test","2","true","1","categorize-html","56","185878","0.0-6.0-2.0","24132","202301919","common"
"4847.900000095367","false","hexagon","80","80,81","triangle,circle,hexagon,square,diamond","C","","","","","test","3","true","1","categorize-html","58","192248","0.0-6.0-4.0","24132","202301919","common"
"3579.9000000953674","false","triangle,hexagon","80","80,81","triangle,circle,hexagon,square,diamond","A","C","","","","test","4","true","1","categorize-html","60","197359","0.0-6.0-6.0","24132","202301919","common"
"2711.9000000953674","false","circle","80","80,81","triangle,circle,hexagon,square,diamond","B","","","","","test","5","true","1","categorize-html","62","201607","0.0-6.0-8.0","24132","202301919","common"
"1418.8000001907349","false","triangle","80","80,81","triangle,circle,hexagon,square,diamond","A","","","","","test","6","true","1","categorize-html","64","204571","0.0-6.0-10.0","24132","202301919","common"
"1499.1999998092651","false","hexagon","80","80,81","triangle,circle,hexagon,square,diamond","C","","","","","test","7","true","1","categorize-html","66","207605","0.0-6.0-12.0","24132","202301919","common"
"1667.1000003814697","false","circle","81","80,81","triangle,circle,hexagon,square,diamond","B","","","","","test","8","true","1","categorize-html","68","210796","0.0-6.0-14.0","24132","202301919","rare"
"1531.7999997138977","false","circle,triangle","80","80,81","triangle,circle,hexagon,square,diamond","B","A","","","","test","9","true","1","categorize-html","70","213854","0.0-6.0-16.0","24132","202301919","common"
"2146","false","circle,hexagon","80","80,81","triangle,circle,hexagon,square,diamond","B","C","","","","test","10","true","1","categorize-html","72","217518","0.0-6.0-18.0","24132","202301919","common"
"2251.5","false","triangle,circle","80","80,81","triangle,circle,hexagon,square,diamond","A","B","","","","test","11","true","1","categorize-html","74","221309","0.0-6.0-20.0","24132","202301919","common"
"1466.5999999046326","false","triangle","81","80,81","triangle,circle,hexagon,square,diamond","A","","","","","test","12","true","1","categorize-html","76","224298","0.0-6.0-22.0","24132","202301919","rare"
"2204.699999809265","false","circle,hexagon","81","80,81","triangle,circle,hexagon,square,diamond","B","C","","","","test","13","true","1","categorize-html","78","228041","0.0-6.0-24.0","24132","202301919","rare"
"1953.9000000953674","false","triangle,circle","81","80,81","triangle,circle,hexagon,square,diamond","A","B","","","","test","14","true","1","categorize-html","80","231533","0.0-6.0-26.0","24132","202301919","rare"
"1535.9000000953674","false","circle","80","80,81","triangle,circle,hexagon,square,diamond","B","","","","","test","15","true","1","categorize-html","82","234605","0.0-6.0-28.0","24132","202301919","common"
"1120.0999999046326","false","triangle","80","80,81","triangle,circle,hexagon,square,diamond","A","","","","","test","16","true","1","categorize-html","84","237252","0.0-6.0-30.0","24132","202301919","common"
"1368.5999999046326","false","hexagon","81","80,81","triangle,circle,hexagon,square,diamond","C","","","","","test","17","true","1","categorize-html","86","240161","0.0-6.0-32.0","24132","202301919","rare"
"1074.7000002861023","false","circle","80","80,81","triangle,circle,hexagon,square,diamond","B","","","","","test","18","true","1","categorize-html","88","242767","0.0-6.0-34.0","24132","202301919","common"
"1299.6999998092651","false","triangle,hexagon","81","80,81","triangle,circle,hexagon,square,diamond","A","C","","","","test","19","true","1","categorize-html","90","245590","0.0-6.0-36.0","24132","202301919","rare"
"1311.3999996185303","false","hexagon,circle","81","80,81","triangle,circle,hexagon,square,diamond","C","B","","","","test","20","true","1","categorize-html","92","248433","0.0-6.0-38.0","24132","202301919","rare"
"1914.3000001907349","false","hexagon","81","80,81","triangle,circle,hexagon,square,diamond","C","","","","","test","21","true","1","categorize-html","94","251872","0.0-6.0-40.0","24132","202301919","rare"
"650.2000002861023","false","triangle","80","80,81","triangle,circle,hexagon,square,diamond","A","","","","","test","22","true","1","categorize-html","96","254066","0.0-6.0-42.0","24132","202301919","common"
"1030","false","hexagon,triangle","80","80,81","triangle,circle,hexagon,square,diamond","C","A","","","","test","23","true","1","categorize-html","98","256618","0.0-6.0-44.0","24132","202301919","common"
"1146.5999999046326","false","circle,triangle","81","80,81","triangle,circle,hexagon,square,diamond","B","A","","","","test","24","true","1","categorize-html","100","259300","0.0-6.0-46.0","24132","202301919","rare"
"1584.8999996185303","false","triangle,hexagon","80","80,81","triangle,circle,hexagon,square,diamond","A","C","","","","test","25","true","1","categorize-html","103","265215","0.0-6.0-49.0","24132","202301919","common"
"1091.1000003814697","false","hexagon,triangle","81","80,81","triangle,circle,hexagon,square,diamond","C","A","","","","test","26","true","1","categorize-html","105","267835","0.0-6.0-51.0","24132","202301919","rare"
"776.9000000953674","false","triangle,circle","80","80,81","triangle,circle,hexagon,square,diamond","A","B","","","","test","27","true","1","categorize-html","107","270129","0.0-6.0-53.0","24132","202301919","common"
"765.2000002861023","false","hexagon,circle","80","80,81","triangle,circle,hexagon,square,diamond","C","B","","","","test","28","true","1","categorize-html","109","272422","0.0-6.0-55.0","24132","202301919","common"
"992.2000002861023","false","hexagon","80","80,81","triangle,circle,hexagon,square,diamond","C","","","","","test","29","true","1","categorize-html","111","274945","0.0-6.0-57.0","24132","202301919","common"
"1290.8999996185303","false","circle,triangle","80","80,81","triangle,circle,hexagon,square,diamond","B","A","","","","test","30","true","1","categorize-html","113","277763","0.0-6.0-59.0","24132","202301919","common"
"761.2999997138977","false","triangle","80","80,81","triangle,circle,hexagon,square,diamond","A","","","","","test","31","true","1","categorize-html","115","280060","0.0-6.0-61.0","24132","202301919","common"
"711.9000000953674","false","circle","80","80,81","triangle,circle,hexagon,square,diamond","B","","","","","test","32","true","1","categorize-html","117","282301","0.0-6.0-63.0","24132","202301919","common"
"779.8000001907349","false","circle","80","80,81","triangle,circle,hexagon,square,diamond","B","","","","","test","33","true","1","categorize-html","119","284608","0.0-6.0-65.0","24132","202301919","common"
"1050.6999998092651","false","circle,hexagon","80","80,81","triangle,circle,hexagon,square,diamond","B","C","","","","test","34","true","1","categorize-html","121","287201","0.0-6.0-67.0","24132","202301919","common"
"881.1000003814697","false","triangle","80","80,81","triangle,circle,hexagon,square,diamond","A","","","","","test","35","true","1","categorize-html","123","289601","0.0-6.0-69.0","24132","202301919","common"
"820.2000002861023","false","hexagon","80","80,81","triangle,circle,hexagon,square,diamond","C","","","","","test","36","true","1","categorize-html","125","291962","0.0-6.0-71.0","24132","202301919","common"
"1117.4000000953674","false","triangle,hexagon","81","80,81","triangle,circle,hexagon,square,diamond","A","C","","","","test","37","true","1","categorize-html","127","294620","0.0-6.0-73.0","24132","202301919","rare"
"555.6000003814697","false","triangle","80","80,81","triangle,circle,hexagon,square,diamond","A","","","","","test","38","true","1","categorize-html","129","296694","0.0-6.0-75.0","24132","202301919","common"
"724.1999998092651","false","circle,triangle","80","80,81","triangle,circle,hexagon,square,diamond","B","A","","","","test","39","true","1","categorize-html","131","298946","0.0-6.0-77.0","24132","202301919","common"
"651.9000000953674","false","circle","80","80,81","triangle,circle,hexagon,square,diamond","B","","","","","test","40","true","1","categorize-html","133","301134","0.0-6.0-79.0","24132","202301919","common"
"652.8000001907349","false","hexagon","80","80,81","triangle,circle,hexagon,square,diamond","C","","","","","test","41","true","1","categorize-html","135","303303","0.0-6.0-81.0","24132","202301919","common"
"503.7999997138977","false","circle,hexagon","80","80,81","triangle,circle,hexagon,square,diamond","B","C","","","","test","42","true","1","categorize-html","137","305340","0.0-6.0-83.0","24132","202301919","common"
"664.0999999046326","false","triangle,circle","80","80,81","triangle,circle,hexagon,square,diamond","A","B","","","","test","43","true","1","categorize-html","139","307531","0.0-6.0-85.0","24132","202301919","common"
"530.3999996185303","false","hexagon,circle","81","80,81","triangle,circle,hexagon,square,diamond","C","B","","","","test","44","true","1","categorize-html","141","309603","0.0-6.0-87.0","24132","202301919","rare"
"670.3000001907349","false","hexagon","80","80,81","triangle,circle,hexagon,square,diamond","C","","","","","test","45","true","1","categorize-html","143","311808","0.0-6.0-89.0","24132","202301919","common"
"556.7999997138977","false","circle","80","80,81","triangle,circle,hexagon,square,diamond","B","","","","","test","46","true","1","categorize-html","145","313899","0.0-6.0-91.0","24132","202301919","common"
"743","false","hexagon,triangle","80","80,81","triangle,circle,hexagon,square,diamond","C","A","","","","test","47","true","1","categorize-html","147","316175","0.0-6.0-93.0","24132","202301919","common"
"519.5999999046326","false","triangle","80","80,81","triangle,circle,hexagon,square,diamond","A","","","","","test","48","true","1","categorize-html","149","318231","0.0-6.0-95.0","24132","202301919","common"
"2637.0999999046326","false","circle,hexagon","81","80,81","triangle,circle,hexagon,square,diamond","B","C","","","","test","49","true","1","categorize-html","152","383883","0.0-6.0-98.0","24132","202301919","rare"
"574.5999999046326","false","triangle","81","80,81","triangle,circle,hexagon,square,diamond","A","","","","","test","50","true","1","categorize-html","154","385988","0.0-6.0-100.0","24132","202301919","rare"
"451.2999997138977","false","hexagon","80","80,81","triangle,circle,hexagon,square,diamond","C","","","","","test","51","true","1","categorize-html","156","387970","0.0-6.0-102.0","24132","202301919","common"
"420.09999990463257","false","triangle,circle","80","80,81","triangle,circle,hexagon,square,diamond","A","B","","","","test","52","true","1","categorize-html","158","389929","0.0-6.0-104.0","24132","202301919","common"
"289.8999996185303","false","circle","80","80,81","triangle,circle,hexagon,square,diamond","B","","","","","test","53","true","1","categorize-html","160","391757","0.0-6.0-106.0","24132","202301919","common"
"569.5999999046326","false","hexagon,circle","80","80,81","triangle,circle,hexagon,square,diamond","C","B","","","","test","54","true","1","categorize-html","162","393862","0.0-6.0-108.0","24132","202301919","common"
"326.3999996185303","false","circle,triangle","80","80,81","triangle,circle,hexagon,square,diamond","B","A","","","","test","55","true","1","categorize-html","164","395727","0.0-6.0-110.0","24132","202301919","common"
"419.19999980926514","false","circle","81","80,81","triangle,circle,hexagon,square,diamond","B","","","","","test","56","true","1","categorize-html","166","397681","0.0-6.0-112.0","24132","202301919","rare"
"543","false","hexagon,triangle","80","80,81","triangle,circle,hexagon,square,diamond","C","A","","","","test","57","true","1","categorize-html","168","399749","0.0-6.0-114.0","24132","202301919","common"
"394.90000009536743","false","triangle","80","80,81","triangle,circle,hexagon,square,diamond","A","","","","","test","58","true","1","categorize-html","170","401669","0.0-6.0-116.0","24132","202301919","common"
"324.5","false","triangle,hexagon","81","80,81","triangle,circle,hexagon,square,diamond","A","C","","","","test","59","true","1","categorize-html","172","403527","0.0-6.0-118.0","24132","202301919","rare"
"503.5","false","hexagon","81","80,81","triangle,circle,hexagon,square,diamond","C","","","","","test","60","true","1","categorize-html","174","405566","0.0-6.0-120.0","24132","202301919","rare"
"560.5","false","circle,hexagon","80","80,81","triangle,circle,hexagon,square,diamond","B","C","","","","test","61","true","1","categorize-html","176","407652","0.0-6.0-122.0","24132","202301919","common"
"378.7999997138977","false","triangle,hexagon","80","80,81","triangle,circle,hexagon,square,diamond","A","C","","","","test","62","true","1","categorize-html","178","409539","0.0-6.0-124.0","24132","202301919","common"
"600.7999997138977","false","circle,triangle","81","80,81","triangle,circle,hexagon,square,diamond","B","A","","","","test","63","true","1","categorize-html","180","411673","0.0-6.0-126.0","24132","202301919","rare"
"558.5999999046326","false","hexagon","81","80,81","triangle,circle,hexagon,square,diamond","C","","","","","test","64","true","1","categorize-html","182","413762","0.0-6.0-128.0","24132","202301919","rare"
"489.3999996185303","false","triangle,circle","81","80,81","triangle,circle,hexagon,square,diamond","A","B","","","","test","65","true","1","categorize-html","184","415776","0.0-6.0-130.0","24132","202301919","rare"
"387","false","circle","80","80,81","triangle,circle,hexagon,square,diamond","B","","","","","test","66","true","1","categorize-html","186","417698","0.0-6.0-132.0","24132","202301919","common"
"293.90000009536743","false","circle","80","80,81","triangle,circle,hexagon,square,diamond","B","","","","","test","67","true","1","categorize-html","188","419523","0.0-6.0-134.0","24132","202301919","common"
"434.6000003814697","false","hexagon","81","80,81","triangle,circle,hexagon,square,diamond","C","","","","","test","68","true","1","categorize-html","190","421491","0.0-6.0-136.0","24132","202301919","rare"
"507.2999997138977","false","triangle","80","80,81","triangle,circle,hexagon,square,diamond","A","","","","","test","69","true","1","categorize-html","192","423523","0.0-6.0-138.0","24132","202301919","common"
"397.90000009536743","false","hexagon,triangle","80","80,81","triangle,circle,hexagon,square,diamond","C","A","","","","test","70","true","1","categorize-html","194","425464","0.0-6.0-140.0","24132","202301919","common"
"423.30000019073486","false","triangle","80","80,81","triangle,circle,hexagon,square,diamond","A","","","","","test","71","true","1","categorize-html","196","427421","0.0-6.0-142.0","24132","202301919","common"
"382.80000019073486","false","hexagon,circle","80","80,81","triangle,circle,hexagon,square,diamond","C","B","","","","test","72","true","1","categorize-html","198","429332","0.0-6.0-144.0","24132","202301919","common"
"451.90000009536743","false","triangle","81","80,81","triangle,circle,hexagon,square,diamond","A","","","","","test","73","true","1","categorize-html","201","432789","0.0-6.0-147.0","24132","202301919","rare"
"382.90000009536743","false","hexagon","81","80,81","triangle,circle,hexagon,square,diamond","C","","","","","test","74","true","1","categorize-html","203","434693","0.0-6.0-149.0","24132","202301919","rare"
"303.69999980926514","false","circle","81","80,81","triangle,circle,hexagon,square,diamond","B","","","","","test","75","true","1","categorize-html","205","436530","0.0-6.0-151.0","24132","202301919","rare"
"299.09999990463257","false","hexagon,circle","80","80,81","triangle,circle,hexagon,square,diamond","C","B","","","","test","76","true","1","categorize-html","207","438357","0.0-6.0-153.0","24132","202301919","common"
"298.09999990463257","false","circle,triangle","80","80,81","triangle,circle,hexagon,square,diamond","B","A","","","","test","77","true","1","categorize-html","209","440197","0.0-6.0-155.0","24132","202301919","common"
"362.7000002861023","false","triangle,circle","81","80,81","triangle,circle,hexagon,square,diamond","A","B","","","","test","78","true","1","categorize-html","211","442085","0.0-6.0-157.0","24132","202301919","rare"
"345.40000009536743","false","circle","81","80,81","triangle,circle,hexagon,square,diamond","B","","","","","test","79","true","1","categorize-html","213","443965","0.0-6.0-159.0","24132","202301919","rare"
"233.30000019073486","false","hexagon","80","80,81","triangle,circle,hexagon,square,diamond","C","","","","","test","80","true","1","categorize-html","215","445709","0.0-6.0-161.0","24132","202301919","common"
"141.30000019073486","false","circle,hexagon","80","80,81","triangle,circle,hexagon,square,diamond","B","C","","","","test","81","true","1","categorize-html","217","447384","0.0-6.0-163.0","24132","202301919","common"
"210.60000038146973","false","hexagon,triangle","80","80,81","triangle,circle,hexagon,square,diamond","C","A","","","","test","82","true","1","categorize-html","219","449132","0.0-6.0-165.0","24132","202301919","common"
"436.59999990463257","false","triangle,hexagon","80","80,81","triangle,circle,hexagon,square,diamond","A","C","","","","test","83","true","1","categorize-html","221","451105","0.0-6.0-167.0","24132","202301919","common"
"326.30000019073486","false","triangle","80","80,81","triangle,circle,hexagon,square,diamond","A","","","","","test","84","true","1","categorize-html","223","452971","0.0-6.0-169.0","24132","202301919","common"
"523.1999998092651","false","circle,triangle","80","80,81","triangle,circle,hexagon,square,diamond","B","A","","","","test","85","true","1","categorize-html","225","455024","0.0-6.0-171.0","24132","202301919","common"
"317.5","false","triangle","80","80,81","triangle,circle,hexagon,square,diamond","A","","","","","test","86","true","1","categorize-html","227","456866","0.0-6.0-173.0","24132","202301919","common"
"274.09999990463257","false","triangle","80","80,81","triangle,circle,hexagon,square,diamond","A","","","","","test","87","true","1","categorize-html","229","458672","0.0-6.0-175.0","24132","202301919","common"
"271.80000019073486","false","hexagon,triangle","81","80,81","triangle,circle,hexagon,square,diamond","C","A","","","","test","88","true","1","categorize-html","231","460481","0.0-6.0-177.0","24132","202301919","rare"
"300.30000019073486","false","circle,hexagon","81","80,81","triangle,circle,hexagon,square,diamond","B","C","","","","test","89","true","1","categorize-html","233","462321","0.0-6.0-179.0","24132","202301919","rare"
"284.5","false","hexagon","81","80,81","triangle,circle,hexagon,square,diamond","C","","","","","test","90","true","1","categorize-html","235","464142","0.0-6.0-181.0","24132","202301919","rare"
"285.59999990463257","false","circle","80","80,81","triangle,circle,hexagon,square,diamond","B","","","","","test","91","true","1","categorize-html","237","465951","0.0-6.0-183.0","24132","202301919","common"
"336.59999990463257","false","triangle,hexagon","80","80,81","triangle,circle,hexagon,square,diamond","A","C","","","","test","92","true","1","categorize-html","239","467805","0.0-6.0-185.0","24132","202301919","common"
"243.09999990463257","false","circle","81","80,81","triangle,circle,hexagon,square,diamond","B","","","","","test","93","true","1","categorize-html","241","469577","0.0-6.0-187.0","24132","202301919","rare"
"304.59999990463257","false","triangle,circle","81","80,81","triangle,circle,hexagon,square,diamond","A","B","","","","test","94","true","1","categorize-html","243","471412","0.0-6.0-189.0","24132","202301919","rare"
"273.2999997138977","false","hexagon","80","80,81","triangle,circle,hexagon,square,diamond","C","","","","","test","95","true","1","categorize-html","245","473226","0.0-6.0-191.0","24132","202301919","common"
"99.90000009536743","false","hexagon,circle","81","80,81","triangle,circle,hexagon,square,diamond","C","B","","","","test","96","true","1","categorize-html","247","474867","0.0-6.0-193.0","24132","202301919","rare"
"856.2000002861023","false","circle,hexagon","81","80,81","triangle,circle,hexagon,square,diamond","B","C","","","","test","97","true","1","categorize-html","250","508045","0.0-6.0-196.0","24132","202301919","rare"
"285.2999997138977","false","hexagon,triangle","81","80,81","triangle,circle,hexagon,square,diamond","C","A","","","","test","98","true","1","categorize-html","252","509866","0.0-6.0-198.0","24132","202301919","rare"
"2286.5999999046326","false","triangle","80","80,81","triangle,circle,hexagon,square,diamond","A","","","","","test","99","true","1","categorize-html","254","513675","0.0-6.0-200.0","24132","202301919","common"
"309.2000002861023","false","hexagon","80","80,81","triangle,circle,hexagon,square,diamond","C","","","","","test","100","true","1","categorize-html","256","515509","0.0-6.0-202.0","24132","202301919","common"
"726.0999999046326","false","triangle,hexagon","81","80,81","triangle,circle,hexagon,square,diamond","A","C","","","","test","101","true","1","categorize-html","258","517766","0.0-6.0-204.0","24132","202301919","rare"
"1975.6000003814697","false","triangle,circle","81","80,81","triangle,circle,hexagon,square,diamond","A","B","","","","test","102","true","1","categorize-html","260","521263","0.0-6.0-206.0","24132","202301919","rare"
"262.30000019073486","false","circle","80","80,81","triangle,circle,hexagon,square,diamond","B","","","","","test","103","true","1","categorize-html","262","523054","0.0-6.0-208.0","24132","202301919","common"
"305.09999990463257","false","triangle","80","80,81","triangle,circle,hexagon,square,diamond","A","","","","","test","104","true","1","categorize-html","264","524895","0.0-6.0-210.0","24132","202301919","common"
"326.69999980926514","false","hexagon,circle","80","80,81","triangle,circle,hexagon,square,diamond","C","B","","","","test","105","true","1","categorize-html","266","526762","0.0-6.0-212.0","24132","202301919","common"
"332.19999980926514","false","circle,triangle","80","80,81","triangle,circle,hexagon,square,diamond","B","A","","","","test","106","true","1","categorize-html","268","528627","0.0-6.0-214.0","24132","202301919","common"
"656.0999999046326","false","circle","81","80,81","triangle,circle,hexagon,square,diamond","B","","","","","test","107","true","1","categorize-html","270","530802","0.0-6.0-216.0","24132","202301919","rare"
"302","false","hexagon","80","80,81","triangle,circle,hexagon,square,diamond","C","","","","","test","108","true","1","categorize-html","272","532628","0.0-6.0-218.0","24132","202301919","common"
"280.30000019073486","false","circle","80","80,81","triangle,circle,hexagon,square,diamond","B","","","","","test","109","true","1","categorize-html","274","534430","0.0-6.0-220.0","24132","202301919","common"
"311.69999980926514","false","hexagon,triangle","80","80,81","triangle,circle,hexagon,square,diamond","C","A","","","","test","110","true","1","categorize-html","276","536276","0.0-6.0-222.0","24132","202301919","common"
"275.6000003814697","false","triangle","80","80,81","triangle,circle,hexagon,square,diamond","A","","","","","test","111","true","1","categorize-html","278","538076","0.0-6.0-224.0","24132","202301919","common"
"417.19999980926514","false","hexagon","81","80,81","triangle,circle,hexagon,square,diamond","C","","","","","test","112","true","1","categorize-html","280","540033","0.0-6.0-226.0","24132","202301919","rare"
"278","false","circle","80","80,81","triangle,circle,hexagon,square,diamond","B","","","","","test","113","true","1","categorize-html","282","541844","0.0-6.0-228.0","24132","202301919","common"
"269.59999990463257","false","circle,triangle","80","80,81","triangle,circle,hexagon,square,diamond","B","A","","","","test","114","true","1","categorize-html","284","543656","0.0-6.0-230.0","24132","202301919","common"
"287.30000019073486","false","triangle,circle","80","80,81","triangle,circle,hexagon,square,diamond","A","B","","","","test","115","true","1","categorize-html","286","545481","0.0-6.0-232.0","24132","202301919","common"
"387.40000009536743","false","hexagon","80","80,81","triangle,circle,hexagon,square,diamond","C","","","","","test","116","true","1","categorize-html","288","547390","0.0-6.0-234.0","24132","202301919","common"
"392.8999996185303","false","triangle","81","80,81","triangle,circle,hexagon,square,diamond","A","","","","","test","117","true","1","categorize-html","290","549328","0.0-6.0-236.0","24132","202301919","rare"
"494","false","circle,hexagon","81","80,81","triangle,circle,hexagon,square,diamond","B","C","","","","test","118","true","1","categorize-html","292","551351","0.0-6.0-238.0","24132","202301919","rare"
"439.80000019073486","false","hexagon,circle","81","80,81","triangle,circle,hexagon,square,diamond","C","B","","","","test","119","true","1","categorize-html","294","553330","0.0-6.0-240.0","24132","202301919","rare"
"312.5","false","triangle,hexagon","80","80,81","triangle,circle,hexagon,square,diamond","A","C","","","","test","120","true","1","categorize-html","296","555159","0.0-6.0-242.0","24132","202301919","common"
