"rt","correct","stimulus","key_press","keys","symptoms_shuffle","symptom1","symptom2","symptom3","key","category","phase","trial","include","block","trial_type","trial_index","time_elapsed","internal_node_id","ppt","session","abresp"
"4769.999999999993","false","triangle,diamond,circle","32","81,80","diamond,triangle,hexagon,circle,square","B","A","D","81","common","training","1","true","1","categorize-html","4","60786","0.0-4.0-0.0","24350","202301712","none"
"4484","false","circle,diamond,triangle","32","81,80","diamond,triangle,hexagon,circle,square","D","A","B","81","common","training","2","true","1","categorize-html","6","66276","0.0-4.0-2.0","24350","202301712","none"
"2550","false","diamond,circle,triangle","32","81,80","diamond,triangle,hexagon,circle,square","A","D","B","81","common","training","3","true","1","categorize-html","8","69832","0.0-4.0-4.0","24350","202301712","none"
"2188","false","hexagon,diamond,square","32","81,80","diamond,triangle,hexagon,circle,square","C","A","E","80","rare","training","4","true","1","categorize-html","10","73026","0.0-4.0-6.0","24350","202301712","none"
"1455","false","circle,diamond,triangle","32","81,80","diamond,triangle,hexagon,circle,square","D","A","B","81","common","training","5","true","1","categorize-html","12","75486","0.0-4.0-8.0","24350","202301712","none"
"1787","false","diamond,square,hexagon","32","81,80","diamond,triangle,hexagon,circle,square","A","E","C","80","rare","training","6","true","1","categorize-html","14","78281","0.0-4.0-10.0","24350","202301712","none"
"1870","false","circle,diamond,triangle","32","81,80","diamond,triangle,hexagon,circle,square","D","A","B","81","common","training","7","true","1","categorize-html","16","81158","0.0-4.0-12.0","24350","202301712","none"
"1494","false","diamond,triangle,circle","32","81,80","diamond,triangle,hexagon,circle,square","A","B","D","81","common","training","8","true","1","categorize-html","18","83659","0.0-4.0-14.0","24350","202301712","none"
"1596","false","circle,triangle,diamond","32","81,80","diamond,triangle,hexagon,circle,square","D","B","A","81","common","training","9","true","1","categorize-html","20","86261","0.0-4.0-16.0","24350","202301712","none"
"665","false","diamond,hexagon,square","32","81,80","diamond,triangle,hexagon,circle,square","A","C","E","80","rare","training","10","true","1","categorize-html","22","87931","0.0-4.0-18.0","24350","202301712","none"
"1219","false","circle,triangle,diamond","32","81,80","diamond,triangle,hexagon,circle,square","D","B","A","81","common","training","11","true","1","categorize-html","24","90157","0.0-4.0-20.0","24350","202301712","none"
"1213.0000000000146","false","diamond,triangle,circle","32","81,80","diamond,triangle,hexagon,circle,square","A","B","D","81","common","training","12","true","1","categorize-html","26","92375","0.0-4.0-22.0","24350","202301712","none"
"1208.9999999999854","false","circle,triangle,diamond","32","81,80","diamond,triangle,hexagon,circle,square","D","B","A","81","common","training","13","true","1","categorize-html","28","94592","0.0-4.0-24.0","24350","202301712","none"
"1219","false","hexagon,square,diamond","32","81,80","diamond,triangle,hexagon,circle,square","C","E","A","80","rare","training","14","true","1","categorize-html","30","96818","0.0-4.0-26.0","24350","202301712","none"
"1179","false","triangle,circle,diamond","32","81,80","diamond,triangle,hexagon,circle,square","B","D","A","81","common","training","15","true","1","categorize-html","32","99004","0.0-4.0-28.0","24350","202301712","none"
"1385.9999999999854","false","triangle,circle,diamond","32","81,80","diamond,triangle,hexagon,circle,square","B","D","A","81","common","training","16","true","1","categorize-html","34","101398","0.0-4.0-30.0","24350","202301712","none"
"1059","false","square,hexagon,diamond","32","81,80","diamond,triangle,hexagon,circle,square","E","C","A","80","rare","training","17","true","1","categorize-html","36","103463","0.0-4.0-32.0","24350","202301712","none"
"1072","false","square,diamond,hexagon","32","81,80","diamond,triangle,hexagon,circle,square","E","A","C","80","rare","training","18","true","1","categorize-html","38","105540","0.0-4.0-34.0","24350","202301712","none"
"1096.0000000000146","false","diamond,triangle,circle","32","81,80","diamond,triangle,hexagon,circle,square","A","B","D","81","common","training","19","true","1","categorize-html","40","107644","0.0-4.0-36.0","24350","202301712","none"
"1126","false","triangle,circle,diamond","32","81,80","diamond,triangle,hexagon,circle,square","B","D","A","81","common","training","20","true","1","categorize-html","42","109773","0.0-4.0-38.0","24350","202301712","none"
"1011","false","triangle,diamond,circle","32","81,80","diamond,triangle,hexagon,circle,square","B","A","D","81","common","training","21","true","1","categorize-html","44","111791","0.0-4.0-40.0","24350","202301712","none"
"1010","false","triangle,diamond,circle","32","81,80","diamond,triangle,hexagon,circle,square","B","A","D","81","common","training","22","true","1","categorize-html","46","113807","0.0-4.0-42.0","24350","202301712","none"
"981","false","diamond,circle,triangle","32","81,80","diamond,triangle,hexagon,circle,square","A","D","B","81","common","training","23","true","1","categorize-html","48","115793","0.0-4.0-44.0","24350","202301712","none"
"1286","false","diamond,circle,triangle","32","81,80","diamond,triangle,hexagon,circle,square","A","D","B","81","common","training","24","true","1","categorize-html","50","118083","0.0-4.0-46.0","24350","202301712","none"
"null","false","hexagon,triangle","null","81,80","diamond,triangle,hexagon,circle,square","C","B","","","","test","1","true","1","categorize-html","54","186009","0.0-6.0-0.0","24350","202301712","none"
"5104.000000000029","false","hexagon","80","81,80","diamond,triangle,hexagon,circle,square","C","","","","","test","2","true","1","categorize-html","56","192619","0.0-6.0-2.0","24350","202301712","rare"
"8013.999999999971","false","triangle,hexagon","81","81,80","diamond,triangle,hexagon,circle,square","B","C","","","","test","3","true","1","categorize-html","58","202139","0.0-6.0-4.0","24350","202301712","common"
"4024","false","triangle","81","81,80","diamond,triangle,hexagon,circle,square","B","","","","","test","4","true","1","categorize-html","60","207669","0.0-6.0-6.0","24350","202301712","common"
"4336","false","diamond","80","81,80","diamond,triangle,hexagon,circle,square","A","","","","","test","5","true","1","categorize-html","62","213509","0.0-6.0-8.0","24350","202301712","rare"
"4062","false","hexagon","80","81,80","diamond,triangle,hexagon,circle,square","C","","","","","test","6","true","1","categorize-html","64","219079","0.0-6.0-10.0","24350","202301712","rare"
"3218.000000000029","false","diamond,triangle","81","81,80","diamond,triangle,hexagon,circle,square","A","B","","","","test","7","true","1","categorize-html","66","223805","0.0-6.0-12.0","24350","202301712","common"
"4463","false","diamond","81","81,80","diamond,triangle,hexagon,circle,square","A","","","","","test","8","true","1","categorize-html","68","229776","0.0-6.0-14.0","24350","202301712","common"
"4869","false","diamond,hexagon","80","81,80","diamond,triangle,hexagon,circle,square","A","C","","","","test","9","true","1","categorize-html","70","236152","0.0-6.0-16.0","24350","202301712","rare"
"4762","false","hexagon,diamond","81","81,80","diamond,triangle,hexagon,circle,square","C","A","","","","test","10","true","1","categorize-html","72","242419","0.0-6.0-18.0","24350","202301712","common"
"1478.000000000029","false","triangle,diamond","80","81,80","diamond,triangle,hexagon,circle,square","B","A","","","","test","11","true","1","categorize-html","74","245404","0.0-6.0-20.0","24350","202301712","rare"
"953.9999999999709","false","triangle","80","81,80","diamond,triangle,hexagon,circle,square","B","","","","","test","12","true","1","categorize-html","76","247863","0.0-6.0-22.0","24350","202301712","rare"
"570","false","triangle,hexagon","80","81,80","diamond,triangle,hexagon,circle,square","B","C","","","","test","13","true","1","categorize-html","78","249942","0.0-6.0-24.0","24350","202301712","rare"
"1315","false","hexagon","81","81,80","diamond,triangle,hexagon,circle,square","C","","","","","test","14","true","1","categorize-html","80","252762","0.0-6.0-26.0","24350","202301712","common"
"868.0000000000291","false","diamond,hexagon","81","81,80","diamond,triangle,hexagon,circle,square","A","C","","","","test","15","true","1","categorize-html","82","255135","0.0-6.0-28.0","24350","202301712","common"
"951","false","diamond","80","81,80","diamond,triangle,hexagon,circle,square","A","","","","","test","16","true","1","categorize-html","84","257595","0.0-6.0-30.0","24350","202301712","rare"
"1159.999999999971","false","diamond,triangle","80","81,80","diamond,triangle,hexagon,circle,square","A","B","","","","test","17","true","1","categorize-html","86","260259","0.0-6.0-32.0","24350","202301712","rare"
"1084","false","hexagon,triangle","80","81,80","diamond,triangle,hexagon,circle,square","C","B","","","","test","18","true","1","categorize-html","88","262848","0.0-6.0-34.0","24350","202301712","rare"
"1201","false","hexagon","81","81,80","diamond,triangle,hexagon,circle,square","C","","","","","test","19","true","1","categorize-html","90","265555","0.0-6.0-36.0","24350","202301712","common"
"956","false","hexagon,diamond","80","81,80","diamond,triangle,hexagon,circle,square","C","A","","","","test","20","true","1","categorize-html","92","268016","0.0-6.0-38.0","24350","202301712","rare"
"1268","false","triangle,diamond","81","81,80","diamond,triangle,hexagon,circle,square","B","A","","","","test","21","true","1","categorize-html","94","270789","0.0-6.0-40.0","24350","202301712","common"
"1663","false","diamond","81","81,80","diamond,triangle,hexagon,circle,square","A","","","","","test","22","true","1","categorize-html","96","273958","0.0-6.0-42.0","24350","202301712","common"
"464","false","triangle","81","81,80","diamond,triangle,hexagon,circle,square","B","","","","","test","23","true","1","categorize-html","98","275929","0.0-6.0-44.0","24350","202301712","common"
"511.0000000000582","false","triangle","80","81,80","diamond,triangle,hexagon,circle,square","B","","","","","test","24","true","1","categorize-html","100","277947","0.0-6.0-46.0","24350","202301712","rare"
"1201","false","diamond,triangle","80","81,80","diamond,triangle,hexagon,circle,square","A","B","","","","test","25","true","1","categorize-html","103","285425","0.0-6.0-49.0","24350","202301712","rare"
"1392","false","hexagon","80","81,80","diamond,triangle,hexagon,circle,square","C","","","","","test","26","true","1","categorize-html","105","288327","0.0-6.0-51.0","24350","202301712","rare"
"696","false","triangle,hexagon","80","81,80","diamond,triangle,hexagon,circle,square","B","C","","","","test","27","true","1","categorize-html","107","290529","0.0-6.0-53.0","24350","202301712","rare"
"741","false","triangle","81","81,80","diamond,triangle,hexagon,circle,square","B","","","","","test","28","true","1","categorize-html","109","292778","0.0-6.0-55.0","24350","202301712","common"
"1111","false","diamond,hexagon","80","81,80","diamond,triangle,hexagon,circle,square","A","C","","","","test","29","true","1","categorize-html","111","295396","0.0-6.0-57.0","24350","202301712","rare"
"2130","false","diamond","81","81,80","diamond,triangle,hexagon,circle,square","A","","","","","test","30","true","1","categorize-html","113","299034","0.0-6.0-59.0","24350","202301712","common"
"1006","false","triangle","80","81,80","diamond,triangle,hexagon,circle,square","B","","","","","test","31","true","1","categorize-html","115","301545","0.0-6.0-61.0","24350","202301712","rare"
"1005.0000000000582","false","hexagon,triangle","80","81,80","diamond,triangle,hexagon,circle,square","C","B","","","","test","32","true","1","categorize-html","117","304057","0.0-6.0-63.0","24350","202301712","rare"
"789","false","diamond","80","81,80","diamond,triangle,hexagon,circle,square","A","","","","","test","33","true","1","categorize-html","119","306351","0.0-6.0-65.0","24350","202301712","rare"
"813","false","hexagon,diamond","81","81,80","diamond,triangle,hexagon,circle,square","C","A","","","","test","34","true","1","categorize-html","121","308672","0.0-6.0-67.0","24350","202301712","common"
"451","false","hexagon","81","81,80","diamond,triangle,hexagon,circle,square","C","","","","","test","35","true","1","categorize-html","123","310627","0.0-6.0-69.0","24350","202301712","common"
"588.0000000000582","false","triangle,diamond","81","81,80","diamond,triangle,hexagon,circle,square","B","A","","","","test","36","true","1","categorize-html","125","312721","0.0-6.0-71.0","24350","202301712","common"
"558","false","hexagon,triangle","81","81,80","diamond,triangle,hexagon,circle,square","C","B","","","","test","37","true","1","categorize-html","127","314786","0.0-6.0-73.0","24350","202301712","common"
"1678","false","diamond","80","81,80","diamond,triangle,hexagon,circle,square","A","","","","","test","38","true","1","categorize-html","129","317969","0.0-6.0-75.0","24350","202301712","rare"
"2183","false","hexagon","80","81,80","diamond,triangle,hexagon,circle,square","C","","","","","test","39","true","1","categorize-html","131","321657","0.0-6.0-77.0","24350","202301712","rare"
"947","false","diamond,triangle","81","81,80","diamond,triangle,hexagon,circle,square","A","B","","","","test","40","true","1","categorize-html","133","324108","0.0-6.0-79.0","24350","202301712","common"
"1349","false","diamond","81","81,80","diamond,triangle,hexagon,circle,square","A","","","","","test","41","true","1","categorize-html","135","326963","0.0-6.0-81.0","24350","202301712","common"
"3165","false","triangle","80","81,80","diamond,triangle,hexagon,circle,square","B","","","","","test","42","true","1","categorize-html","137","331635","0.0-6.0-83.0","24350","202301712","rare"
"5095","false","triangle,hexagon","81","81,80","diamond,triangle,hexagon,circle,square","B","C","","","","test","43","true","1","categorize-html","139","338238","0.0-6.0-85.0","24350","202301712","common"
"3690.999999999942","false","triangle,diamond","81","81,80","diamond,triangle,hexagon,circle,square","B","A","","","","test","44","true","1","categorize-html","141","343437","0.0-6.0-87.0","24350","202301712","common"
"4473","false","triangle","80","81,80","diamond,triangle,hexagon,circle,square","B","","","","","test","45","true","1","categorize-html","143","349415","0.0-6.0-89.0","24350","202301712","rare"
"4565","false","diamond,hexagon","81","81,80","diamond,triangle,hexagon,circle,square","A","C","","","","test","46","true","1","categorize-html","145","355485","0.0-6.0-91.0","24350","202301712","common"
"6296","false","hexagon,diamond","81","81,80","diamond,triangle,hexagon,circle,square","C","A","","","","test","47","true","1","categorize-html","147","363288","0.0-6.0-93.0","24350","202301712","common"
"986","false","hexagon","80","81,80","diamond,triangle,hexagon,circle,square","C","","","","","test","48","true","1","categorize-html","149","365778","0.0-6.0-95.0","24350","202301712","rare"
"2619.000000000058","false","diamond,hexagon","81","81,80","diamond,triangle,hexagon,circle,square","A","C","","","","test","49","true","1","categorize-html","152","400355","0.0-6.0-98.0","24350","202301712","common"
"2185","false","triangle,hexagon","80","81,80","diamond,triangle,hexagon,circle,square","B","C","","","","test","50","true","1","categorize-html","154","404043","0.0-6.0-100.0","24350","202301712","rare"
"783","false","hexagon,triangle","80","81,80","diamond,triangle,hexagon,circle,square","C","B","","","","test","51","true","1","categorize-html","156","406328","0.0-6.0-102.0","24350","202301712","rare"
"1448.9999999999418","false","diamond","81","81,80","diamond,triangle,hexagon,circle,square","A","","","","","test","52","true","1","categorize-html","158","409280","0.0-6.0-104.0","24350","202301712","common"
"887","false","triangle","81","81,80","diamond,triangle,hexagon,circle,square","B","","","","","test","53","true","1","categorize-html","160","411669","0.0-6.0-106.0","24350","202301712","common"
"1005","false","diamond","80","81,80","diamond,triangle,hexagon,circle,square","A","","","","","test","54","true","1","categorize-html","162","414177","0.0-6.0-108.0","24350","202301712","rare"
"730","false","diamond,triangle","80","81,80","diamond,triangle,hexagon,circle,square","A","B","","","","test","55","true","1","categorize-html","164","416409","0.0-6.0-110.0","24350","202301712","rare"
"854","false","triangle","80","81,80","diamond,triangle,hexagon,circle,square","B","","","","","test","56","true","1","categorize-html","166","418766","0.0-6.0-112.0","24350","202301712","rare"
"692","false","hexagon","81","81,80","diamond,triangle,hexagon,circle,square","C","","","","","test","57","true","1","categorize-html","168","420961","0.0-6.0-114.0","24350","202301712","common"
"711","false","triangle,diamond","80","81,80","diamond,triangle,hexagon,circle,square","B","A","","","","test","58","true","1","categorize-html","170","423174","0.0-6.0-116.0","24350","202301712","rare"
"988","false","hexagon,diamond","81","81,80","diamond,triangle,hexagon,circle,square","C","A","","","","test","59","true","1","categorize-html","172","425665","0.0-6.0-118.0","24350","202301712","common"
"696","false","hexagon","81","81,80","diamond,triangle,hexagon,circle,square","C","","","","","test","60","true","1","categorize-html","174","427863","0.0-6.0-120.0","24350","202301712","common"
"768.9999999999418","false","hexagon,triangle","81","81,80","diamond,triangle,hexagon,circle,square","C","B","","","","test","61","true","1","categorize-html","176","430135","0.0-6.0-122.0","24350","202301712","common"
"731","false","hexagon","81","81,80","diamond,triangle,hexagon,circle,square","C","","","","","test","62","true","1","categorize-html","178","432367","0.0-6.0-124.0","24350","202301712","common"
"830.0000000000582","false","triangle,diamond","80","81,80","diamond,triangle,hexagon,circle,square","B","A","","","","test","63","true","1","categorize-html","180","434700","0.0-6.0-126.0","24350","202301712","rare"
"751","false","triangle,hexagon","81","81,80","diamond,triangle,hexagon,circle,square","B","C","","","","test","64","true","1","categorize-html","182","436953","0.0-6.0-128.0","24350","202301712","common"
"634","false","diamond,hexagon","80","81,80","diamond,triangle,hexagon,circle,square","A","C","","","","test","65","true","1","categorize-html","184","439090","0.0-6.0-130.0","24350","202301712","rare"
"703","false","triangle","81","81,80","diamond,triangle,hexagon,circle,square","B","","","","","test","66","true","1","categorize-html","186","441297","0.0-6.0-132.0","24350","202301712","common"
"1445.9999999999418","false","hexagon","81","81,80","diamond,triangle,hexagon,circle,square","C","","","","","test","67","true","1","categorize-html","188","444248","0.0-6.0-134.0","24350","202301712","common"
"1266","false","diamond,triangle","80","81,80","diamond,triangle,hexagon,circle,square","A","B","","","","test","68","true","1","categorize-html","190","447017","0.0-6.0-136.0","24350","202301712","rare"
"773","false","diamond","80","81,80","diamond,triangle,hexagon,circle,square","A","","","","","test","69","true","1","categorize-html","192","449292","0.0-6.0-138.0","24350","202301712","rare"
"1343","false","triangle","80","81,80","diamond,triangle,hexagon,circle,square","B","","","","","test","70","true","1","categorize-html","194","452137","0.0-6.0-140.0","24350","202301712","rare"
"2455.999999999942","false","diamond","80","81,80","diamond,triangle,hexagon,circle,square","A","","","","","test","71","true","1","categorize-html","196","456096","0.0-6.0-142.0","24350","202301712","rare"
"476","false","hexagon,diamond","81","81,80","diamond,triangle,hexagon,circle,square","C","A","","","","test","72","true","1","categorize-html","198","458076","0.0-6.0-144.0","24350","202301712","common"
"2353","false","diamond","81","81,80","diamond,triangle,hexagon,circle,square","A","","","","","test","73","true","1","categorize-html","201","464866","0.0-6.0-147.0","24350","202301712","common"
"851","false","hexagon,triangle","81","81,80","diamond,triangle,hexagon,circle,square","C","B","","","","test","74","true","1","categorize-html","203","467221","0.0-6.0-149.0","24350","202301712","common"
"3377","false","hexagon","80","81,80","diamond,triangle,hexagon,circle,square","C","","","","","test","75","true","1","categorize-html","205","472101","0.0-6.0-151.0","24350","202301712","rare"
"3164.999999999942","false","hexagon,diamond","80","81,80","diamond,triangle,hexagon,circle,square","C","A","","","","test","76","true","1","categorize-html","207","476768","0.0-6.0-153.0","24350","202301712","rare"
"3022","false","diamond,triangle","81","81,80","diamond,triangle,hexagon,circle,square","A","B","","","","test","77","true","1","categorize-html","209","481295","0.0-6.0-155.0","24350","202301712","common"
"3273","false","diamond","80","81,80","diamond,triangle,hexagon,circle,square","A","","","","","test","78","true","1","categorize-html","211","486072","0.0-6.0-157.0","24350","202301712","rare"
"4737","false","triangle,hexagon","81","81,80","diamond,triangle,hexagon,circle,square","B","C","","","","test","79","true","1","categorize-html","213","492313","0.0-6.0-159.0","24350","202301712","common"
"2751.999999999942","false","triangle","81","81,80","diamond,triangle,hexagon,circle,square","B","","","","","test","80","true","1","categorize-html","215","496568","0.0-6.0-161.0","24350","202301712","common"
"2174","false","hexagon","80","81,80","diamond,triangle,hexagon,circle,square","C","","","","","test","81","true","1","categorize-html","217","500246","0.0-6.0-163.0","24350","202301712","rare"
"2362","false","triangle","81","81,80","diamond,triangle,hexagon,circle,square","B","","","","","test","82","true","1","categorize-html","219","504112","0.0-6.0-165.0","24350","202301712","common"
"5401","false","triangle,diamond","81","81,80","diamond,triangle,hexagon,circle,square","B","A","","","","test","83","true","1","categorize-html","221","511016","0.0-6.0-167.0","24350","202301712","common"
"3537","false","diamond,hexagon","80","81,80","diamond,triangle,hexagon,circle,square","A","C","","","","test","84","true","1","categorize-html","223","516055","0.0-6.0-169.0","24350","202301712","rare"
"924.9999999999418","false","hexagon","81","81,80","diamond,triangle,hexagon,circle,square","C","","","","","test","85","true","1","categorize-html","225","518484","0.0-6.0-171.0","24350","202301712","common"
"3850","false","diamond","80","81,80","diamond,triangle,hexagon,circle,square","A","","","","","test","86","true","1","categorize-html","227","523838","0.0-6.0-173.0","24350","202301712","rare"
"2996","false","hexagon","80","81,80","diamond,triangle,hexagon,circle,square","C","","","","","test","87","true","1","categorize-html","229","528336","0.0-6.0-175.0","24350","202301712","rare"
"2954.0000000001164","false","hexagon,diamond","81","81,80","diamond,triangle,hexagon,circle,square","C","A","","","","test","88","true","1","categorize-html","231","532793","0.0-6.0-177.0","24350","202301712","common"
"1445","false","triangle","81","81,80","diamond,triangle,hexagon,circle,square","B","","","","","test","89","true","1","categorize-html","233","535742","0.0-6.0-179.0","24350","202301712","common"
"3484","false","diamond,hexagon","81","81,80","diamond,triangle,hexagon,circle,square","A","C","","","","test","90","true","1","categorize-html","235","540729","0.0-6.0-181.0","24350","202301712","common"
"4820","false","diamond,triangle","81","81,80","diamond,triangle,hexagon,circle,square","A","B","","","","test","91","true","1","categorize-html","237","547053","0.0-6.0-183.0","24350","202301712","common"
"1179","false","triangle","80","81,80","diamond,triangle,hexagon,circle,square","B","","","","","test","92","true","1","categorize-html","239","549734","0.0-6.0-185.0","24350","202301712","rare"
"4262","false","triangle,diamond","81","81,80","diamond,triangle,hexagon,circle,square","B","A","","","","test","93","true","1","categorize-html","241","555500","0.0-6.0-187.0","24350","202301712","common"
"483","false","hexagon,triangle","80","81,80","diamond,triangle,hexagon,circle,square","C","B","","","","test","94","true","1","categorize-html","243","557486","0.0-6.0-189.0","24350","202301712","rare"
"3935.9999999998836","false","diamond","81","81,80","diamond,triangle,hexagon,circle,square","A","","","","","test","95","true","1","categorize-html","245","562926","0.0-6.0-191.0","24350","202301712","common"
"372","false","triangle,hexagon","81","81,80","diamond,triangle,hexagon,circle,square","B","C","","","","test","96","true","1","categorize-html","247","564801","0.0-6.0-193.0","24350","202301712","common"
"4144","false","triangle,hexagon","81","81,80","diamond,triangle,hexagon,circle,square","B","C","","","","test","97","true","1","categorize-html","250","571433","0.0-6.0-196.0","24350","202301712","common"
"2216.9999999998836","false","hexagon","80","81,80","diamond,triangle,hexagon,circle,square","C","","","","","test","98","true","1","categorize-html","252","575153","0.0-6.0-198.0","24350","202301712","rare"
"3699","false","triangle,diamond","81","81,80","diamond,triangle,hexagon,circle,square","B","A","","","","test","99","true","1","categorize-html","254","580356","0.0-6.0-200.0","24350","202301712","common"
"2808.0000000001164","false","triangle","81","81,80","diamond,triangle,hexagon,circle,square","B","","","","","test","100","true","1","categorize-html","256","584667","0.0-6.0-202.0","24350","202301712","common"
"1841","false","triangle","81","81,80","diamond,triangle,hexagon,circle,square","B","","","","","test","101","true","1","categorize-html","258","588011","0.0-6.0-204.0","24350","202301712","common"
"2671","false","hexagon,diamond","80","81,80","diamond,triangle,hexagon,circle,square","C","A","","","","test","102","true","1","categorize-html","260","592185","0.0-6.0-206.0","24350","202301712","rare"
"3871","false","diamond","81","81,80","diamond,triangle,hexagon,circle,square","A","","","","","test","103","true","1","categorize-html","262","597559","0.0-6.0-208.0","24350","202301712","common"
"3210","false","diamond","80","81,80","diamond,triangle,hexagon,circle,square","A","","","","","test","104","true","1","categorize-html","264","602272","0.0-6.0-210.0","24350","202301712","rare"
"927","false","hexagon,triangle","80","81,80","diamond,triangle,hexagon,circle,square","C","B","","","","test","105","true","1","categorize-html","266","604703","0.0-6.0-212.0","24350","202301712","rare"
"1037.0000000001164","false","diamond,triangle","81","81,80","diamond,triangle,hexagon,circle,square","A","B","","","","test","106","true","1","categorize-html","268","607244","0.0-6.0-214.0","24350","202301712","common"
"2285","false","hexagon","80","81,80","diamond,triangle,hexagon,circle,square","C","","","","","test","107","true","1","categorize-html","270","611032","0.0-6.0-216.0","24350","202301712","rare"
"1710.9999999998836","false","diamond,hexagon","80","81,80","diamond,triangle,hexagon,circle,square","A","C","","","","test","108","true","1","categorize-html","272","614248","0.0-6.0-218.0","24350","202301712","rare"
"3226","false","triangle","81","81,80","diamond,triangle,hexagon,circle,square","B","","","","","test","109","true","1","categorize-html","274","618978","0.0-6.0-220.0","24350","202301712","common"
"3118","false","hexagon,triangle","81","81,80","diamond,triangle,hexagon,circle,square","C","B","","","","test","110","true","1","categorize-html","276","623599","0.0-6.0-222.0","24350","202301712","common"
"842","false","hexagon,diamond","80","81,80","diamond,triangle,hexagon,circle,square","C","A","","","","test","111","true","1","categorize-html","278","625944","0.0-6.0-224.0","24350","202301712","rare"
"3855","false","triangle,hexagon","81","81,80","diamond,triangle,hexagon,circle,square","B","C","","","","test","112","true","1","categorize-html","280","631302","0.0-6.0-226.0","24350","202301712","common"
"5050","false","diamond","81","81,80","diamond,triangle,hexagon,circle,square","A","","","","","test","113","true","1","categorize-html","282","637856","0.0-6.0-228.0","24350","202301712","common"
"3330","false","hexagon","80","81,80","diamond,triangle,hexagon,circle,square","C","","","","","test","114","true","1","categorize-html","284","642688","0.0-6.0-230.0","24350","202301712","rare"
"1287","false","diamond,triangle","81","81,80","diamond,triangle,hexagon,circle,square","A","B","","","","test","115","true","1","categorize-html","286","645479","0.0-6.0-232.0","24350","202301712","common"
"3724","false","triangle,diamond","80","81,80","diamond,triangle,hexagon,circle,square","B","A","","","","test","116","true","1","categorize-html","288","650706","0.0-6.0-234.0","24350","202301712","rare"
"1483","false","diamond,hexagon","81","81,80","diamond,triangle,hexagon,circle,square","A","C","","","","test","117","true","1","categorize-html","290","653693","0.0-6.0-236.0","24350","202301712","common"
"4647","false","diamond","80","81,80","diamond,triangle,hexagon,circle,square","A","","","","","test","118","true","1","categorize-html","292","659843","0.0-6.0-238.0","24350","202301712","rare"
"2847","false","triangle","81","81,80","diamond,triangle,hexagon,circle,square","B","","","","","test","119","true","1","categorize-html","294","664193","0.0-6.0-240.0","24350","202301712","common"
"2606","false","hexagon","80","81,80","diamond,triangle,hexagon,circle,square","C","","","","","test","120","true","1","categorize-html","296","668303","0.0-6.0-242.0","24350","202301712","rare"
