"rt","correct","stimulus","key_press","keys","symptoms_shuffle","symptom1","symptom2","symptom3","key","category","phase","trial","include","block","trial_type","trial_index","time_elapsed","internal_node_id","ppt","session","abresp"
"4314.199999999255","false","hexagon,square,circle","32","81,80","square,circle,diamond,hexagon,triangle","D","A","B","81","common","training","1","true","1","categorize-html","4","83146","0.0-4.0-0.0","25405","202301715","none"
"null","false","circle,square,hexagon","null","81,80","square,circle,diamond,hexagon,triangle","B","A","D","81","common","training","2","true","1","categorize-html","6","89199","0.0-4.0-2.0","25405","202301715","none"
"2126.100000000559","false","hexagon,circle,square","32","81,80","square,circle,diamond,hexagon,triangle","D","B","A","81","common","training","3","true","1","categorize-html","8","92339","0.0-4.0-4.0","25405","202301715","none"
"3795.5","false","triangle,diamond,square","32","81,80","square,circle,diamond,hexagon,triangle","E","C","A","80","rare","training","4","true","1","categorize-html","10","97164","0.0-4.0-6.0","25405","202301715","none"
"2667.9000000003725","false","hexagon,square,circle","32","81,80","square,circle,diamond,hexagon,triangle","D","A","B","81","common","training","5","true","1","categorize-html","12","100859","0.0-4.0-8.0","25405","202301715","none"
"2443.399999999441","false","circle,hexagon,square","32","81,80","square,circle,diamond,hexagon,triangle","B","D","A","81","common","training","6","true","1","categorize-html","14","104320","0.0-4.0-10.0","25405","202301715","none"
"2261.899999999441","false","triangle,square,diamond","32","81,80","square,circle,diamond,hexagon,triangle","E","A","C","80","rare","training","7","true","1","categorize-html","16","107608","0.0-4.0-12.0","25405","202301715","none"
"2751.4000000003725","false","diamond,square,triangle","32","81,80","square,circle,diamond,hexagon,triangle","C","A","E","80","rare","training","8","true","1","categorize-html","18","111388","0.0-4.0-14.0","25405","202301715","none"
"2214.0999999996275","false","square,triangle,diamond","32","81,80","square,circle,diamond,hexagon,triangle","A","E","C","80","rare","training","9","true","1","categorize-html","20","114637","0.0-4.0-16.0","25405","202301715","none"
"2185.0999999996275","false","circle,hexagon,square","32","81,80","square,circle,diamond,hexagon,triangle","B","D","A","81","common","training","10","true","1","categorize-html","22","117844","0.0-4.0-18.0","25405","202301715","none"
"3250.399999999441","false","diamond,triangle,square","32","81,80","square,circle,diamond,hexagon,triangle","C","E","A","80","rare","training","11","true","1","categorize-html","24","122127","0.0-4.0-20.0","25405","202301715","none"
"2836.899999999441","false","circle,square,hexagon","32","81,80","square,circle,diamond,hexagon,triangle","B","A","D","81","common","training","12","true","1","categorize-html","26","125993","0.0-4.0-22.0","25405","202301715","none"
"2768.7999999998137","false","square,circle,hexagon","32","81,80","square,circle,diamond,hexagon,triangle","A","B","D","81","common","training","13","true","1","categorize-html","28","129775","0.0-4.0-24.0","25405","202301715","none"
"1989.2999999998137","false","square,diamond,triangle","32","81,80","square,circle,diamond,hexagon,triangle","A","C","E","80","rare","training","14","true","1","categorize-html","30","132792","0.0-4.0-26.0","25405","202301715","none"
"2236.9000000003725","false","square,circle,hexagon","32","81,80","square,circle,diamond,hexagon,triangle","A","B","D","81","common","training","15","true","1","categorize-html","32","136045","0.0-4.0-28.0","25405","202301715","none"
"1369.7999999998137","false","circle,square,hexagon","32","81,80","square,circle,diamond,hexagon,triangle","B","A","D","81","common","training","16","true","1","categorize-html","34","138455","0.0-4.0-30.0","25405","202301715","none"
"2170.9000000003725","false","square,hexagon,circle","32","81,80","square,circle,diamond,hexagon,triangle","A","D","B","81","common","training","17","true","1","categorize-html","36","141656","0.0-4.0-32.0","25405","202301715","none"
"1799","false","hexagon,circle,square","32","81,80","square,circle,diamond,hexagon,triangle","D","B","A","81","common","training","18","true","1","categorize-html","38","144477","0.0-4.0-34.0","25405","202301715","none"
"1829.2999999998137","false","hexagon,circle,square","32","81,80","square,circle,diamond,hexagon,triangle","D","B","A","81","common","training","19","true","1","categorize-html","40","147322","0.0-4.0-36.0","25405","202301715","none"
"1377.9000000003725","false","square,hexagon,circle","32","81,80","square,circle,diamond,hexagon,triangle","A","D","B","81","common","training","20","true","1","categorize-html","42","149732","0.0-4.0-38.0","25405","202301715","none"
"1960.7999999998137","false","circle,hexagon,square","32","81,80","square,circle,diamond,hexagon,triangle","B","D","A","81","common","training","21","true","1","categorize-html","44","152720","0.0-4.0-40.0","25405","202301715","none"
"1634.7999999998137","false","square,hexagon,circle","32","81,80","square,circle,diamond,hexagon,triangle","A","D","B","81","common","training","22","true","1","categorize-html","46","155390","0.0-4.0-42.0","25405","202301715","none"
"2194.7999999998137","false","square,circle,hexagon","32","81,80","square,circle,diamond,hexagon,triangle","A","B","D","81","common","training","23","true","1","categorize-html","48","158610","0.0-4.0-44.0","25405","202301715","none"
"2378.4000000003725","false","hexagon,square,circle","32","81,80","square,circle,diamond,hexagon,triangle","D","A","B","81","common","training","24","true","1","categorize-html","50","162023","0.0-4.0-46.0","25405","202301715","none"
"4977.9000000003725","false","square","81","81,80","square,circle,diamond,hexagon,triangle","A","","","","","test","1","true","1","categorize-html","54","193681","0.0-6.0-0.0","25405","202301715","common"
"2348.7999999998137","false","circle","81","81,80","square,circle,diamond,hexagon,triangle","B","","","","","test","2","true","1","categorize-html","56","197562","0.0-6.0-2.0","25405","202301715","common"
"1670.2999999998137","false","diamond","80","81,80","square,circle,diamond,hexagon,triangle","C","","","","","test","3","true","1","categorize-html","58","200760","0.0-6.0-4.0","25405","202301715","rare"
"3737.4000000003725","false","circle,diamond","80","81,80","square,circle,diamond,hexagon,triangle","B","C","","","","test","4","true","1","categorize-html","60","206012","0.0-6.0-6.0","25405","202301715","rare"
"2219.600000000559","false","circle","81","81,80","square,circle,diamond,hexagon,triangle","B","","","","","test","5","true","1","categorize-html","62","209771","0.0-6.0-8.0","25405","202301715","common"
"1059.4000000003725","false","circle,square","81","81,80","square,circle,diamond,hexagon,triangle","B","A","","","","test","6","true","1","categorize-html","64","212348","0.0-6.0-10.0","25405","202301715","common"
"855.3000000007451","false","diamond","80","81,80","square,circle,diamond,hexagon,triangle","C","","","","","test","7","true","1","categorize-html","66","214742","0.0-6.0-12.0","25405","202301715","rare"
"1099.1000000005588","false","square","81","81,80","square,circle,diamond,hexagon,triangle","A","","","","","test","8","true","1","categorize-html","68","217362","0.0-6.0-14.0","25405","202301715","common"
"1829.2999999998137","false","diamond,square","80","81,80","square,circle,diamond,hexagon,triangle","C","A","","","","test","9","true","1","categorize-html","70","220722","0.0-6.0-16.0","25405","202301715","rare"
"1962.2000000001863","false","square,diamond","80","81,80","square,circle,diamond,hexagon,triangle","A","C","","","","test","10","true","1","categorize-html","72","224208","0.0-6.0-18.0","25405","202301715","rare"
"2794.0999999996275","false","diamond,circle","80","81,80","square,circle,diamond,hexagon,triangle","C","B","","","","test","11","true","1","categorize-html","74","228527","0.0-6.0-20.0","25405","202301715","rare"
"2116.4000000003725","false","square,circle","81","81,80","square,circle,diamond,hexagon,triangle","A","B","","","","test","12","true","1","categorize-html","76","232176","0.0-6.0-22.0","25405","202301715","common"
"1519.2999999998137","false","circle,square","81","81,80","square,circle,diamond,hexagon,triangle","B","A","","","","test","13","true","1","categorize-html","78","235225","0.0-6.0-24.0","25405","202301715","common"
"1999.5","false","diamond,square","80","81,80","square,circle,diamond,hexagon,triangle","C","A","","","","test","14","true","1","categorize-html","80","238740","0.0-6.0-26.0","25405","202301715","rare"
"838.3000000007451","false","diamond","80","81,80","square,circle,diamond,hexagon,triangle","C","","","","","test","15","true","1","categorize-html","82","241108","0.0-6.0-28.0","25405","202301715","rare"
"1081.5","false","square","81","81,80","square,circle,diamond,hexagon,triangle","A","","","","","test","16","true","1","categorize-html","84","243729","0.0-6.0-30.0","25405","202301715","common"
"1381.2999999998137","false","circle","81","81,80","square,circle,diamond,hexagon,triangle","B","","","","","test","17","true","1","categorize-html","86","246639","0.0-6.0-32.0","25405","202301715","common"
"852.7999999998137","false","diamond","80","81,80","square,circle,diamond,hexagon,triangle","C","","","","","test","18","true","1","categorize-html","88","249019","0.0-6.0-34.0","25405","202301715","rare"
"2077.7000000001863","false","circle","81","81,80","square,circle,diamond,hexagon,triangle","B","","","","","test","19","true","1","categorize-html","90","252617","0.0-6.0-36.0","25405","202301715","common"
"944.1000000005588","false","square,circle","81","81,80","square,circle,diamond,hexagon,triangle","A","B","","","","test","20","true","1","categorize-html","92","255074","0.0-6.0-38.0","25405","202301715","common"
"899.1000000005588","false","square","81","81,80","square,circle,diamond,hexagon,triangle","A","","","","","test","21","true","1","categorize-html","94","257504","0.0-6.0-40.0","25405","202301715","common"
"1122.3999999994412","false","square,diamond","80","81,80","square,circle,diamond,hexagon,triangle","A","C","","","","test","22","true","1","categorize-html","96","260156","0.0-6.0-42.0","25405","202301715","rare"
"861.5999999996275","false","diamond,circle","80","81,80","square,circle,diamond,hexagon,triangle","C","B","","","","test","23","true","1","categorize-html","98","262547","0.0-6.0-44.0","25405","202301715","rare"
"874.4000000003725","false","circle,diamond","80","81,80","square,circle,diamond,hexagon,triangle","B","C","","","","test","24","true","1","categorize-html","100","264952","0.0-6.0-46.0","25405","202301715","rare"
"2356.4000000003725","false","diamond,circle","80","81,80","square,circle,diamond,hexagon,triangle","C","B","","","","test","25","true","1","categorize-html","103","272209","0.0-6.0-49.0","25405","202301715","rare"
"1215.5","false","square,diamond","80","81,80","square,circle,diamond,hexagon,triangle","A","C","","","","test","26","true","1","categorize-html","105","274946","0.0-6.0-51.0","25405","202301715","rare"
"737.2000000001863","false","circle,diamond","80","81,80","square,circle,diamond,hexagon,triangle","B","C","","","","test","27","true","1","categorize-html","107","277212","0.0-6.0-53.0","25405","202301715","rare"
"776.5","false","circle,square","81","81,80","square,circle,diamond,hexagon,triangle","B","A","","","","test","28","true","1","categorize-html","109","279527","0.0-6.0-55.0","25405","202301715","common"
"820.5","false","diamond","80","81,80","square,circle,diamond,hexagon,triangle","C","","","","","test","29","true","1","categorize-html","111","281878","0.0-6.0-57.0","25405","202301715","rare"
"913.5","false","square","81","81,80","square,circle,diamond,hexagon,triangle","A","","","","","test","30","true","1","categorize-html","113","284328","0.0-6.0-59.0","25405","202301715","common"
"740","false","square","81","81,80","square,circle,diamond,hexagon,triangle","A","","","","","test","31","true","1","categorize-html","115","286595","0.0-6.0-61.0","25405","202301715","common"
"1475.5","false","circle","81","81,80","square,circle,diamond,hexagon,triangle","B","","","","","test","32","true","1","categorize-html","117","289597","0.0-6.0-63.0","25405","202301715","common"
"750.3000000007451","false","circle","80","81,80","square,circle,diamond,hexagon,triangle","B","","","","","test","33","true","1","categorize-html","119","291874","0.0-6.0-65.0","25405","202301715","rare"
"873.0999999996275","false","diamond,square","80","81,80","square,circle,diamond,hexagon,triangle","C","A","","","","test","34","true","1","categorize-html","121","294275","0.0-6.0-67.0","25405","202301715","rare"
"640.5999999996275","false","square,circle","81","81,80","square,circle,diamond,hexagon,triangle","A","B","","","","test","35","true","1","categorize-html","123","296436","0.0-6.0-69.0","25405","202301715","common"
"921.7000000001863","false","diamond","80","81,80","square,circle,diamond,hexagon,triangle","C","","","","","test","36","true","1","categorize-html","125","298894","0.0-6.0-71.0","25405","202301715","rare"
"599.6999999992549","false","diamond","80","81,80","square,circle,diamond,hexagon,triangle","C","","","","","test","37","true","1","categorize-html","127","301032","0.0-6.0-73.0","25405","202301715","rare"
"822.7000000001863","false","circle,diamond","80","81,80","square,circle,diamond,hexagon,triangle","B","C","","","","test","38","true","1","categorize-html","129","303378","0.0-6.0-75.0","25405","202301715","rare"
"637.7999999998137","false","diamond,circle","80","81,80","square,circle,diamond,hexagon,triangle","C","B","","","","test","39","true","1","categorize-html","131","305548","0.0-6.0-77.0","25405","202301715","rare"
"1437","false","diamond","80","81,80","square,circle,diamond,hexagon,triangle","C","","","","","test","40","true","1","categorize-html","133","308516","0.0-6.0-79.0","25405","202301715","rare"
"1024.2999999998137","false","square","81","81,80","square,circle,diamond,hexagon,triangle","A","","","","","test","41","true","1","categorize-html","135","311071","0.0-6.0-81.0","25405","202301715","common"
"1215.5","false","circle","81","81,80","square,circle,diamond,hexagon,triangle","B","","","","","test","42","true","1","categorize-html","137","313803","0.0-6.0-83.0","25405","202301715","common"
"494.5","false","square","81","81,80","square,circle,diamond,hexagon,triangle","A","","","","","test","43","true","1","categorize-html","139","315825","0.0-6.0-85.0","25405","202301715","common"
"746","false","circle,square","81","81,80","square,circle,diamond,hexagon,triangle","B","A","","","","test","44","true","1","categorize-html","141","318103","0.0-6.0-87.0","25405","202301715","common"
"762","false","circle","81","81,80","square,circle,diamond,hexagon,triangle","B","","","","","test","45","true","1","categorize-html","143","320383","0.0-6.0-89.0","25405","202301715","common"
"711.2000000001863","false","square,diamond","80","81,80","square,circle,diamond,hexagon,triangle","A","C","","","","test","46","true","1","categorize-html","145","322615","0.0-6.0-91.0","25405","202301715","rare"
"918.0999999996275","false","square,circle","81","81,80","square,circle,diamond,hexagon,triangle","A","B","","","","test","47","true","1","categorize-html","147","325069","0.0-6.0-93.0","25405","202301715","common"
"905.7000000001863","false","diamond,square","80","81,80","square,circle,diamond,hexagon,triangle","C","A","","","","test","48","true","1","categorize-html","149","327511","0.0-6.0-95.0","25405","202301715","rare"
"1029.4000000003725","false","square,diamond","80","81,80","square,circle,diamond,hexagon,triangle","A","C","","","","test","49","true","1","categorize-html","152","336649","0.0-6.0-98.0","25405","202301715","rare"
"3294.9000000003725","false","circle","81","81,80","square,circle,diamond,hexagon,triangle","B","","","","","test","50","true","1","categorize-html","154","341473","0.0-6.0-100.0","25405","202301715","common"
"1328.7000000001863","false","circle,square","81","81,80","square,circle,diamond,hexagon,triangle","B","A","","","","test","51","true","1","categorize-html","156","344327","0.0-6.0-102.0","25405","202301715","common"
"2191.4000000003725","false","diamond","80","81,80","square,circle,diamond,hexagon,triangle","C","","","","","test","52","true","1","categorize-html","158","348042","0.0-6.0-104.0","25405","202301715","rare"
"607","false","square","81","81,80","square,circle,diamond,hexagon,triangle","A","","","","","test","53","true","1","categorize-html","160","350189","0.0-6.0-106.0","25405","202301715","common"
"1149.7999999998137","false","circle,diamond","80","81,80","square,circle,diamond,hexagon,triangle","B","C","","","","test","54","true","1","categorize-html","162","352868","0.0-6.0-108.0","25405","202301715","rare"
"615.0999999996275","false","square","81","81,80","square,circle,diamond,hexagon,triangle","A","","","","","test","55","true","1","categorize-html","164","355017","0.0-6.0-110.0","25405","202301715","common"
"981.5999999996275","false","circle","81","81,80","square,circle,diamond,hexagon,triangle","B","","","","","test","56","true","1","categorize-html","166","357521","0.0-6.0-112.0","25405","202301715","common"
"1097.2999999998137","false","square,circle","81","81,80","square,circle,diamond,hexagon,triangle","A","B","","","","test","57","true","1","categorize-html","168","360135","0.0-6.0-114.0","25405","202301715","common"
"698.2000000001863","false","diamond,circle","80","81,80","square,circle,diamond,hexagon,triangle","C","B","","","","test","58","true","1","categorize-html","170","362372","0.0-6.0-116.0","25405","202301715","rare"
"481.1000000005588","false","diamond","80","81,80","square,circle,diamond,hexagon,triangle","C","","","","","test","59","true","1","categorize-html","172","364380","0.0-6.0-118.0","25405","202301715","rare"
"551.6000000005588","false","diamond,square","80","81,80","square,circle,diamond,hexagon,triangle","C","A","","","","test","60","true","1","categorize-html","174","366448","0.0-6.0-120.0","25405","202301715","rare"
"643.2000000001863","false","circle,square","81","81,80","square,circle,diamond,hexagon,triangle","B","A","","","","test","61","true","1","categorize-html","176","368615","0.0-6.0-122.0","25405","202301715","common"
"593.9000000003725","false","square,diamond","80","81,80","square,circle,diamond,hexagon,triangle","A","C","","","","test","62","true","1","categorize-html","178","370737","0.0-6.0-124.0","25405","202301715","rare"
"891.7000000001863","false","circle,diamond","80","81,80","square,circle,diamond,hexagon,triangle","B","C","","","","test","63","true","1","categorize-html","180","373148","0.0-6.0-126.0","25405","202301715","rare"
"800.7999999998137","false","diamond","80","81,80","square,circle,diamond,hexagon,triangle","C","","","","","test","64","true","1","categorize-html","182","375479","0.0-6.0-128.0","25405","202301715","rare"
"1390.0999999996275","false","diamond,circle","80","81,80","square,circle,diamond,hexagon,triangle","C","B","","","","test","65","true","1","categorize-html","184","378394","0.0-6.0-130.0","25405","202301715","rare"
"1072.5","false","diamond,square","80","81,80","square,circle,diamond,hexagon,triangle","C","A","","","","test","66","true","1","categorize-html","186","380994","0.0-6.0-132.0","25405","202301715","rare"
"561.4000000003725","false","square,circle","81","81,80","square,circle,diamond,hexagon,triangle","A","B","","","","test","67","true","1","categorize-html","188","383087","0.0-6.0-134.0","25405","202301715","common"
"719.5","false","circle","81","81,80","square,circle,diamond,hexagon,triangle","B","","","","","test","68","true","1","categorize-html","190","385336","0.0-6.0-136.0","25405","202301715","common"
"762.2999999998137","false","square","81","81,80","square,circle,diamond,hexagon,triangle","A","","","","","test","69","true","1","categorize-html","192","387639","0.0-6.0-138.0","25405","202301715","common"
"604.5","false","diamond","80","81,80","square,circle,diamond,hexagon,triangle","C","","","","","test","70","true","1","categorize-html","194","389773","0.0-6.0-140.0","25405","202301715","rare"
"809.3999999994412","false","circle","81","81,80","square,circle,diamond,hexagon,triangle","B","","","","","test","71","true","1","categorize-html","196","392121","0.0-6.0-142.0","25405","202301715","common"
"606.9000000003725","false","square","81","81,80","square,circle,diamond,hexagon,triangle","A","","","","","test","72","true","1","categorize-html","198","394262","0.0-6.0-144.0","25405","202301715","common"
"775.3999999994412","false","diamond","80","81,80","square,circle,diamond,hexagon,triangle","C","","","","","test","73","true","1","categorize-html","201","398784","0.0-6.0-147.0","25405","202301715","rare"
"868.2999999998137","false","square","81","81,80","square,circle,diamond,hexagon,triangle","A","","","","","test","74","true","1","categorize-html","203","401173","0.0-6.0-149.0","25405","202301715","common"
"831.2000000001863","false","circle,diamond","80","81,80","square,circle,diamond,hexagon,triangle","B","C","","","","test","75","true","1","categorize-html","205","403522","0.0-6.0-151.0","25405","202301715","rare"
"659.2999999998137","false","diamond","80","81,80","square,circle,diamond,hexagon,triangle","C","","","","","test","76","true","1","categorize-html","207","405717","0.0-6.0-153.0","25405","202301715","rare"
"1011.5","false","circle","81","81,80","square,circle,diamond,hexagon,triangle","B","","","","","test","77","true","1","categorize-html","209","408271","0.0-6.0-155.0","25405","202301715","common"
"1156","false","square,circle","81","81,80","square,circle,diamond,hexagon,triangle","A","B","","","","test","78","true","1","categorize-html","211","410967","0.0-6.0-157.0","25405","202301715","common"
"785.5999999996275","false","diamond,circle","80","81,80","square,circle,diamond,hexagon,triangle","C","B","","","","test","79","true","1","categorize-html","213","413288","0.0-6.0-159.0","25405","202301715","rare"
"728.9000000003725","false","diamond,square","80","81,80","square,circle,diamond,hexagon,triangle","C","A","","","","test","80","true","1","categorize-html","215","415549","0.0-6.0-161.0","25405","202301715","rare"
"616.1000000005588","false","square,diamond","80","81,80","square,circle,diamond,hexagon,triangle","A","C","","","","test","81","true","1","categorize-html","217","417697","0.0-6.0-163.0","25405","202301715","rare"
"566","false","circle,square","81","81,80","square,circle,diamond,hexagon,triangle","B","A","","","","test","82","true","1","categorize-html","219","419778","0.0-6.0-165.0","25405","202301715","common"
"465.59999999962747","false","square","81","81,80","square,circle,diamond,hexagon,triangle","A","","","","","test","83","true","1","categorize-html","221","421779","0.0-6.0-167.0","25405","202301715","common"
"550.2000000001863","false","circle","81","81,80","square,circle,diamond,hexagon,triangle","B","","","","","test","84","true","1","categorize-html","223","423843","0.0-6.0-169.0","25405","202301715","common"
"593.7000000001863","false","square,diamond","80","81,80","square,circle,diamond,hexagon,triangle","A","C","","","","test","85","true","1","categorize-html","225","425950","0.0-6.0-171.0","25405","202301715","rare"
"1139.8999999994412","false","square","81","81,80","square,circle,diamond,hexagon,triangle","A","","","","","test","86","true","1","categorize-html","227","428621","0.0-6.0-173.0","25405","202301715","common"
"643.5999999996275","false","circle,diamond","80","81,80","square,circle,diamond,hexagon,triangle","B","C","","","","test","87","true","1","categorize-html","229","430790","0.0-6.0-175.0","25405","202301715","rare"
"1209.699999999255","false","diamond,circle","81","81,80","square,circle,diamond,hexagon,triangle","C","B","","","","test","88","true","1","categorize-html","231","433537","0.0-6.0-177.0","25405","202301715","common"
"894.7999999998137","false","square,circle","80","81,80","square,circle,diamond,hexagon,triangle","A","B","","","","test","89","true","1","categorize-html","233","435962","0.0-6.0-179.0","25405","202301715","rare"
"1308.5999999996275","false","circle","81","81,80","square,circle,diamond,hexagon,triangle","B","","","","","test","90","true","1","categorize-html","235","438795","0.0-6.0-181.0","25405","202301715","common"
"631.2000000001863","false","circle,square","81","81,80","square,circle,diamond,hexagon,triangle","B","A","","","","test","91","true","1","categorize-html","237","440959","0.0-6.0-183.0","25405","202301715","common"
"920.9000000003725","false","square","81","81,80","square,circle,diamond,hexagon,triangle","A","","","","","test","92","true","1","categorize-html","239","443414","0.0-6.0-185.0","25405","202301715","common"
"908.2999999998137","false","diamond,square","80","81,80","square,circle,diamond,hexagon,triangle","C","A","","","","test","93","true","1","categorize-html","241","445856","0.0-6.0-187.0","25405","202301715","rare"
"1996.7999999998137","false","circle","81","81,80","square,circle,diamond,hexagon,triangle","B","","","","","test","94","true","1","categorize-html","243","449391","0.0-6.0-189.0","25405","202301715","common"
"655.1000000005588","false","diamond","80","81,80","square,circle,diamond,hexagon,triangle","C","","","","","test","95","true","1","categorize-html","245","451572","0.0-6.0-191.0","25405","202301715","rare"
"494.3999999994412","false","diamond","80","81,80","square,circle,diamond,hexagon,triangle","C","","","","","test","96","true","1","categorize-html","247","453580","0.0-6.0-193.0","25405","202301715","rare"
"5750","false","circle,diamond","80","81,80","square,circle,diamond,hexagon,triangle","B","C","","","","test","97","true","1","categorize-html","250","462442","0.0-6.0-196.0","25405","202301715","rare"
"699.7999999998137","false","circle","81","81,80","square,circle,diamond,hexagon,triangle","B","","","","","test","98","true","1","categorize-html","252","464663","0.0-6.0-198.0","25405","202301715","common"
"694.7999999998137","false","circle,square","81","81,80","square,circle,diamond,hexagon,triangle","B","A","","","","test","99","true","1","categorize-html","254","466884","0.0-6.0-200.0","25405","202301715","common"
"533.3999999994412","false","diamond,circle","80","81,80","square,circle,diamond,hexagon,triangle","C","B","","","","test","100","true","1","categorize-html","256","468939","0.0-6.0-202.0","25405","202301715","rare"
"949.5999999996275","false","square,diamond","80","81,80","square,circle,diamond,hexagon,triangle","A","C","","","","test","101","true","1","categorize-html","258","471405","0.0-6.0-204.0","25405","202301715","rare"
"555.3999999994412","false","circle","81","81,80","square,circle,diamond,hexagon,triangle","B","","","","","test","102","true","1","categorize-html","260","473484","0.0-6.0-206.0","25405","202301715","common"
"1212.8999999994412","false","square","81","81,80","square,circle,diamond,hexagon,triangle","A","","","","","test","103","true","1","categorize-html","262","476218","0.0-6.0-208.0","25405","202301715","common"
"478.29999999981374","false","diamond","80","81,80","square,circle,diamond,hexagon,triangle","C","","","","","test","104","true","1","categorize-html","264","478222","0.0-6.0-210.0","25405","202301715","rare"
"829.2999999998137","false","diamond,square","80","81,80","square,circle,diamond,hexagon,triangle","C","A","","","","test","105","true","1","categorize-html","266","480571","0.0-6.0-212.0","25405","202301715","rare"
"726.5","false","square","81","81,80","square,circle,diamond,hexagon,triangle","A","","","","","test","106","true","1","categorize-html","268","482824","0.0-6.0-214.0","25405","202301715","common"
"1254.2000000001863","false","diamond","80","81,80","square,circle,diamond,hexagon,triangle","C","","","","","test","107","true","1","categorize-html","270","485611","0.0-6.0-216.0","25405","202301715","rare"
"2268.0999999996275","false","square,circle","81","81,80","square,circle,diamond,hexagon,triangle","A","B","","","","test","108","true","1","categorize-html","272","489406","0.0-6.0-218.0","25405","202301715","common"
"673.7000000001863","false","square,diamond","80","81,80","square,circle,diamond,hexagon,triangle","A","C","","","","test","109","true","1","categorize-html","274","491608","0.0-6.0-220.0","25405","202301715","rare"
"1814.8999999994412","false","square,circle","81","81,80","square,circle,diamond,hexagon,triangle","A","B","","","","test","110","true","1","categorize-html","276","494953","0.0-6.0-222.0","25405","202301715","common"
"546.5","false","diamond","80","81,80","square,circle,diamond,hexagon,triangle","C","","","","","test","111","true","1","categorize-html","278","497014","0.0-6.0-224.0","25405","202301715","rare"
"647.2999999998137","false","diamond","80","81,80","square,circle,diamond,hexagon,triangle","C","","","","","test","112","true","1","categorize-html","280","499186","0.0-6.0-226.0","25405","202301715","rare"
"863.7999999998137","false","diamond,circle","80","81,80","square,circle,diamond,hexagon,triangle","C","B","","","","test","113","true","1","categorize-html","282","501580","0.0-6.0-228.0","25405","202301715","rare"
"629.8999999994412","false","circle,diamond","80","81,80","square,circle,diamond,hexagon,triangle","B","C","","","","test","114","true","1","categorize-html","284","503744","0.0-6.0-230.0","25405","202301715","rare"
"650","false","diamond,square","80","81,80","square,circle,diamond,hexagon,triangle","C","A","","","","test","115","true","1","categorize-html","286","505920","0.0-6.0-232.0","25405","202301715","rare"
"623.3999999994412","false","circle,square","81","81,80","square,circle,diamond,hexagon,triangle","B","A","","","","test","116","true","1","categorize-html","288","508069","0.0-6.0-234.0","25405","202301715","common"
"898.6000000005588","false","square","81","81,80","square,circle,diamond,hexagon,triangle","A","","","","","test","117","true","1","categorize-html","290","510502","0.0-6.0-236.0","25405","202301715","common"
"1489.7999999998137","false","circle","81","81,80","square,circle,diamond,hexagon,triangle","B","","","","","test","118","true","1","categorize-html","292","513517","0.0-6.0-238.0","25405","202301715","common"
"2179.600000000559","false","circle","81","81,80","square,circle,diamond,hexagon,triangle","B","","","","","test","119","true","1","categorize-html","294","517230","0.0-6.0-240.0","25405","202301715","common"
"658","false","square","81","81,80","square,circle,diamond,hexagon,triangle","A","","","","","test","120","true","1","categorize-html","296","519403","0.0-6.0-242.0","25405","202301715","common"
