"rt","correct","stimulus","key_press","keys","symptoms_shuffle","symptom1","symptom2","symptom3","key","category","phase","trial","include","block","trial_type","trial_index","time_elapsed","internal_node_id","ppt","session","abresp"
"4478","false","triangle,square,circle","32","81,80","square,circle,hexagon,triangle,diamond","D","A","B","81","common","training","1","true","1","categorize-html","4","47071","0.0-4.0-0.0","25740","20230172","none"
"null","false","square,circle,triangle","null","81,80","square,circle,hexagon,triangle,diamond","A","B","D","81","common","training","2","true","1","categorize-html","6","53107","0.0-4.0-2.0","25740","20230172","none"
"3057.5","false","circle,triangle,square","32","81,80","square,circle,hexagon,triangle,diamond","B","D","A","81","common","training","3","true","1","categorize-html","8","57192","0.0-4.0-4.0","25740","20230172","none"
"2228.5","false","square,circle,triangle","32","81,80","square,circle,hexagon,triangle,diamond","A","B","D","81","common","training","4","true","1","categorize-html","10","60448","0.0-4.0-6.0","25740","20230172","none"
"1367.199999988079","false","triangle,square,circle","32","81,80","square,circle,hexagon,triangle,diamond","D","A","B","81","common","training","5","true","1","categorize-html","12","62844","0.0-4.0-8.0","25740","20230172","none"
"1938.199999988079","false","triangle,circle,square","32","81,80","square,circle,hexagon,triangle,diamond","D","B","A","81","common","training","6","true","1","categorize-html","14","65814","0.0-4.0-10.0","25740","20230172","none"
"1533","false","circle,square,triangle","32","81,80","square,circle,hexagon,triangle,diamond","B","A","D","81","common","training","7","true","1","categorize-html","16","68374","0.0-4.0-12.0","25740","20230172","none"
"1278.199999988079","false","circle,square,triangle","32","81,80","square,circle,hexagon,triangle,diamond","B","A","D","81","common","training","8","true","1","categorize-html","18","70688","0.0-4.0-14.0","25740","20230172","none"
"1604.300000011921","false","square,triangle,circle","32","81,80","square,circle,hexagon,triangle,diamond","A","D","B","81","common","training","9","true","1","categorize-html","20","73321","0.0-4.0-16.0","25740","20230172","none"
"1014.3999999761581","false","triangle,square,circle","32","81,80","square,circle,hexagon,triangle,diamond","D","A","B","81","common","training","10","true","1","categorize-html","22","75362","0.0-4.0-18.0","25740","20230172","none"
"2631.800000011921","false","square,hexagon,diamond","32","81,80","square,circle,hexagon,triangle,diamond","A","C","E","80","rare","training","11","true","1","categorize-html","24","79010","0.0-4.0-20.0","25740","20230172","none"
"1817.2999999523163","false","hexagon,square,diamond","32","81,80","square,circle,hexagon,triangle,diamond","C","A","E","80","rare","training","12","true","1","categorize-html","26","81867","0.0-4.0-22.0","25740","20230172","none"
"1668.199999988079","false","square,triangle,circle","32","81,80","square,circle,hexagon,triangle,diamond","A","D","B","81","common","training","13","true","1","categorize-html","28","84559","0.0-4.0-24.0","25740","20230172","none"
"1121.5","false","circle,triangle,square","32","81,80","square,circle,hexagon,triangle,diamond","B","D","A","81","common","training","14","true","1","categorize-html","30","86717","0.0-4.0-26.0","25740","20230172","none"
"841","false","diamond,hexagon,square","32","81,80","square,circle,hexagon,triangle,diamond","E","C","A","80","rare","training","15","true","1","categorize-html","32","88580","0.0-4.0-28.0","25740","20230172","none"
"2853.099999964237","false","hexagon,diamond,square","32","81,80","square,circle,hexagon,triangle,diamond","C","E","A","80","rare","training","16","true","1","categorize-html","34","92455","0.0-4.0-30.0","25740","20230172","none"
"1512.300000011921","false","square,circle,triangle","32","81,80","square,circle,hexagon,triangle,diamond","A","B","D","81","common","training","17","true","1","categorize-html","36","95005","0.0-4.0-32.0","25740","20230172","none"
"959.7999999523163","false","square,diamond,hexagon","32","81,80","square,circle,hexagon,triangle,diamond","A","E","C","80","rare","training","18","true","1","categorize-html","38","96993","0.0-4.0-34.0","25740","20230172","none"
"1048.300000011921","false","diamond,square,hexagon","32","81,80","square,circle,hexagon,triangle,diamond","E","A","C","80","rare","training","19","true","1","categorize-html","40","99073","0.0-4.0-36.0","25740","20230172","none"
"1389.2999999523163","false","square,triangle,circle","32","81,80","square,circle,hexagon,triangle,diamond","A","D","B","81","common","training","20","true","1","categorize-html","42","101487","0.0-4.0-38.0","25740","20230172","none"
"705.7000000476837","false","triangle,circle,square","32","81,80","square,circle,hexagon,triangle,diamond","D","B","A","81","common","training","21","true","1","categorize-html","44","103229","0.0-4.0-40.0","25740","20230172","none"
"807.3999999761581","false","circle,square,triangle","32","81,80","square,circle,hexagon,triangle,diamond","B","A","D","81","common","training","22","true","1","categorize-html","46","105072","0.0-4.0-42.0","25740","20230172","none"
"980.8000000119209","false","triangle,circle,square","32","81,80","square,circle,hexagon,triangle,diamond","D","B","A","81","common","training","23","true","1","categorize-html","48","107074","0.0-4.0-44.0","25740","20230172","none"
"685.6999999880791","false","circle,triangle,square","32","81,80","square,circle,hexagon,triangle,diamond","B","D","A","81","common","training","24","true","1","categorize-html","50","108793","0.0-4.0-46.0","25740","20230172","none"
"7503.699999988079","false","hexagon","80","81,80","square,circle,hexagon,triangle,diamond","C","","","","","test","1","true","1","categorize-html","54","137623","0.0-6.0-0.0","25740","20230172","rare"
"7140.5","false","circle,hexagon","81","81,80","square,circle,hexagon,triangle,diamond","B","C","","","","test","2","true","1","categorize-html","56","146283","0.0-6.0-2.0","25740","20230172","common"
"4797","false","hexagon,square","80","81,80","square,circle,hexagon,triangle,diamond","C","A","","","","test","3","true","1","categorize-html","58","152613","0.0-6.0-4.0","25740","20230172","rare"
"1451.0999999642372","false","square,hexagon","80","81,80","square,circle,hexagon,triangle,diamond","A","C","","","","test","4","true","1","categorize-html","60","155589","0.0-6.0-6.0","25740","20230172","rare"
"1635.699999988079","false","hexagon","80","81,80","square,circle,hexagon,triangle,diamond","C","","","","","test","5","true","1","categorize-html","62","158753","0.0-6.0-8.0","25740","20230172","rare"
"3294.899999976158","false","hexagon,circle","80","81,80","square,circle,hexagon,triangle,diamond","C","B","","","","test","6","true","1","categorize-html","64","163563","0.0-6.0-10.0","25740","20230172","rare"
"2331.399999976158","false","circle,square","81","81,80","square,circle,hexagon,triangle,diamond","B","A","","","","test","7","true","1","categorize-html","66","167427","0.0-6.0-12.0","25740","20230172","common"
"2900.300000011921","false","circle","81","81,80","square,circle,hexagon,triangle,diamond","B","","","","","test","8","true","1","categorize-html","68","171855","0.0-6.0-14.0","25740","20230172","common"
"4334.5","false","square","81","81,80","square,circle,hexagon,triangle,diamond","A","","","","","test","9","true","1","categorize-html","70","177720","0.0-6.0-16.0","25740","20230172","common"
"2294.699999988079","false","circle","81","81,80","square,circle,hexagon,triangle,diamond","B","","","","","test","10","true","1","categorize-html","72","181537","0.0-6.0-18.0","25740","20230172","common"
"1284.800000011921","false","square,circle","81","81,80","square,circle,hexagon,triangle,diamond","A","B","","","","test","11","true","1","categorize-html","74","184344","0.0-6.0-20.0","25740","20230172","common"
"1242.1000000238419","false","square","81","81,80","square,circle,hexagon,triangle,diamond","A","","","","","test","12","true","1","categorize-html","76","187104","0.0-6.0-22.0","25740","20230172","common"
"1237.7000000476837","false","hexagon","80","81,80","square,circle,hexagon,triangle,diamond","C","","","","","test","13","true","1","categorize-html","78","189867","0.0-6.0-24.0","25740","20230172","rare"
"1250.800000011921","false","square","81","81,80","square,circle,hexagon,triangle,diamond","A","","","","","test","14","true","1","categorize-html","80","192649","0.0-6.0-26.0","25740","20230172","common"
"1279.300000011921","false","square","81","81,80","square,circle,hexagon,triangle,diamond","A","","","","","test","15","true","1","categorize-html","82","195455","0.0-6.0-28.0","25740","20230172","common"
"1041.800000011921","false","circle,square","81","81,80","square,circle,hexagon,triangle,diamond","B","A","","","","test","16","true","1","categorize-html","84","198022","0.0-6.0-30.0","25740","20230172","common"
"752.9000000357628","false","square,circle","81","81,80","square,circle,hexagon,triangle,diamond","A","B","","","","test","17","true","1","categorize-html","86","200297","0.0-6.0-32.0","25740","20230172","common"
"1550.5","false","hexagon,square","80","81,80","square,circle,hexagon,triangle,diamond","C","A","","","","test","18","true","1","categorize-html","88","203368","0.0-6.0-34.0","25740","20230172","rare"
"4202","false","circle,hexagon","80","81,80","square,circle,hexagon,triangle,diamond","B","C","","","","test","19","true","1","categorize-html","90","209105","0.0-6.0-36.0","25740","20230172","rare"
"910.5999999642372","false","circle","81","81,80","square,circle,hexagon,triangle,diamond","B","","","","","test","20","true","1","categorize-html","92","211551","0.0-6.0-38.0","25740","20230172","common"
"1494.800000011921","false","hexagon","80","81,80","square,circle,hexagon,triangle,diamond","C","","","","","test","21","true","1","categorize-html","94","214568","0.0-6.0-40.0","25740","20230172","rare"
"1138","false","circle","81","81,80","square,circle,hexagon,triangle,diamond","B","","","","","test","22","true","1","categorize-html","96","217223","0.0-6.0-42.0","25740","20230172","common"
"1753.5","false","square,hexagon","80","81,80","square,circle,hexagon,triangle,diamond","A","C","","","","test","23","true","1","categorize-html","98","220500","0.0-6.0-44.0","25740","20230172","rare"
"2138.699999988079","false","hexagon,circle","80","81,80","square,circle,hexagon,triangle,diamond","C","B","","","","test","24","true","1","categorize-html","100","224159","0.0-6.0-46.0","25740","20230172","rare"
"1291.5","false","square","81","81,80","square,circle,hexagon,triangle,diamond","A","","","","","test","25","true","1","categorize-html","103","230400","0.0-6.0-49.0","25740","20230172","common"
"2937.600000023842","false","square,hexagon","80","81,80","square,circle,hexagon,triangle,diamond","A","C","","","","test","26","true","1","categorize-html","105","234864","0.0-6.0-51.0","25740","20230172","rare"
"1715.199999988079","false","circle","81","81,80","square,circle,hexagon,triangle,diamond","B","","","","","test","27","true","1","categorize-html","107","238105","0.0-6.0-53.0","25740","20230172","common"
"2026.5999999642372","false","square,circle","81","81,80","square,circle,hexagon,triangle,diamond","A","B","","","","test","28","true","1","categorize-html","109","241657","0.0-6.0-55.0","25740","20230172","common"
"2164.699999988079","false","hexagon","80","81,80","square,circle,hexagon,triangle,diamond","C","","","","","test","29","true","1","categorize-html","111","245349","0.0-6.0-57.0","25740","20230172","rare"
"1491.5999999642372","false","hexagon,circle","80","81,80","square,circle,hexagon,triangle,diamond","C","B","","","","test","30","true","1","categorize-html","113","248361","0.0-6.0-59.0","25740","20230172","rare"
"1257.1000000238419","false","hexagon","80","81,80","square,circle,hexagon,triangle,diamond","C","","","","","test","31","true","1","categorize-html","115","251143","0.0-6.0-61.0","25740","20230172","rare"
"1186.5999999642372","false","square","81","81,80","square,circle,hexagon,triangle,diamond","A","","","","","test","32","true","1","categorize-html","117","253852","0.0-6.0-63.0","25740","20230172","common"
"1016.0999999642372","false","circle","81","81,80","square,circle,hexagon,triangle,diamond","B","","","","","test","33","true","1","categorize-html","119","256399","0.0-6.0-65.0","25740","20230172","common"
"1206","false","circle,hexagon","80","81,80","square,circle,hexagon,triangle,diamond","B","C","","","","test","34","true","1","categorize-html","121","259121","0.0-6.0-67.0","25740","20230172","rare"
"1766.5","false","circle,square","81","81,80","square,circle,hexagon,triangle,diamond","B","A","","","","test","35","true","1","categorize-html","123","262421","0.0-6.0-69.0","25740","20230172","common"
"1674.5","false","hexagon,square","80","81,80","square,circle,hexagon,triangle,diamond","C","A","","","","test","36","true","1","categorize-html","125","265621","0.0-6.0-71.0","25740","20230172","rare"
"1951.4000000357628","false","circle,hexagon","80","81,80","square,circle,hexagon,triangle,diamond","B","C","","","","test","37","true","1","categorize-html","127","269096","0.0-6.0-73.0","25740","20230172","rare"
"1687.199999988079","false","square,hexagon","80","81,80","square,circle,hexagon,triangle,diamond","A","C","","","","test","38","true","1","categorize-html","129","272313","0.0-6.0-75.0","25740","20230172","rare"
"1884.699999988079","false","circle","81","81,80","square,circle,hexagon,triangle,diamond","B","","","","","test","39","true","1","categorize-html","131","275721","0.0-6.0-77.0","25740","20230172","common"
"4642.599999964237","false","circle","81","81,80","square,circle,hexagon,triangle,diamond","B","","","","","test","40","true","1","categorize-html","133","281887","0.0-6.0-79.0","25740","20230172","common"
"1256.3999999761581","false","circle,square","81","81,80","square,circle,hexagon,triangle,diamond","B","A","","","","test","41","true","1","categorize-html","135","284664","0.0-6.0-81.0","25740","20230172","common"
"2798.399999976158","false","hexagon","80","81,80","square,circle,hexagon,triangle,diamond","C","","","","","test","42","true","1","categorize-html","137","288994","0.0-6.0-83.0","25740","20230172","rare"
"965.8000000119209","false","hexagon","80","81,80","square,circle,hexagon,triangle,diamond","C","","","","","test","43","true","1","categorize-html","139","291502","0.0-6.0-85.0","25740","20230172","rare"
"1634.2000000476837","false","hexagon,circle","80","81,80","square,circle,hexagon,triangle,diamond","C","B","","","","test","44","true","1","categorize-html","141","294657","0.0-6.0-87.0","25740","20230172","rare"
"964.6000000238419","false","square,circle","81","81,80","square,circle,hexagon,triangle,diamond","A","B","","","","test","45","true","1","categorize-html","143","297144","0.0-6.0-89.0","25740","20230172","common"
"1321.5","false","hexagon,square","80","81,80","square,circle,hexagon,triangle,diamond","C","A","","","","test","46","true","1","categorize-html","145","299984","0.0-6.0-91.0","25740","20230172","rare"
"1208.300000011921","false","square","81","81,80","square,circle,hexagon,triangle,diamond","A","","","","","test","47","true","1","categorize-html","147","302716","0.0-6.0-93.0","25740","20230172","common"
"897.5","false","square","81","81,80","square,circle,hexagon,triangle,diamond","A","","","","","test","48","true","1","categorize-html","149","305152","0.0-6.0-95.0","25740","20230172","common"
"2709.600000023842","false","square,hexagon","80","81,80","square,circle,hexagon,triangle,diamond","A","C","","","","test","49","true","1","categorize-html","152","319400","0.0-6.0-98.0","25740","20230172","rare"
"1925.3999999761581","false","hexagon,circle","80","81,80","square,circle,hexagon,triangle,diamond","C","B","","","","test","50","true","1","categorize-html","154","322860","0.0-6.0-100.0","25740","20230172","rare"
"1274.2000000476837","false","hexagon","80","81,80","square,circle,hexagon,triangle,diamond","C","","","","","test","51","true","1","categorize-html","156","325664","0.0-6.0-102.0","25740","20230172","rare"
"1777.300000011921","false","hexagon","80","81,80","square,circle,hexagon,triangle,diamond","C","","","","","test","52","true","1","categorize-html","158","328968","0.0-6.0-104.0","25740","20230172","rare"
"1992.5","false","circle","81","81,80","square,circle,hexagon,triangle,diamond","B","","","","","test","53","true","1","categorize-html","160","332488","0.0-6.0-106.0","25740","20230172","common"
"1840.0999999642372","false","hexagon,square","80","81,80","square,circle,hexagon,triangle,diamond","C","A","","","","test","54","true","1","categorize-html","162","335849","0.0-6.0-108.0","25740","20230172","rare"
"1638.6000000238419","false","square","81","81,80","square,circle,hexagon,triangle,diamond","A","","","","","test","55","true","1","categorize-html","164","338999","0.0-6.0-110.0","25740","20230172","common"
"1033.6000000238419","false","circle,hexagon","80","81,80","square,circle,hexagon,triangle,diamond","B","C","","","","test","56","true","1","categorize-html","166","341568","0.0-6.0-112.0","25740","20230172","rare"
"1508.3999999761581","false","circle","81","81,80","square,circle,hexagon,triangle,diamond","B","","","","","test","57","true","1","categorize-html","168","344606","0.0-6.0-114.0","25740","20230172","common"
"4844.100000023842","false","square","81","81,80","square,circle,hexagon,triangle,diamond","A","","","","","test","58","true","1","categorize-html","170","350983","0.0-6.0-116.0","25740","20230172","common"
"2798.600000023842","false","circle,square","81","81,80","square,circle,hexagon,triangle,diamond","B","A","","","","test","59","true","1","categorize-html","172","355319","0.0-6.0-118.0","25740","20230172","common"
"1365.2000000476837","false","square,circle","81","81,80","square,circle,hexagon,triangle,diamond","A","B","","","","test","60","true","1","categorize-html","174","358209","0.0-6.0-120.0","25740","20230172","common"
"1441","false","circle,hexagon","80","81,80","square,circle,hexagon,triangle,diamond","B","C","","","","test","61","true","1","categorize-html","176","361161","0.0-6.0-122.0","25740","20230172","rare"
"1123.1000000238419","false","circle","81","81,80","square,circle,hexagon,triangle,diamond","B","","","","","test","62","true","1","categorize-html","178","363814","0.0-6.0-124.0","25740","20230172","common"
"1302.3999999761581","false","hexagon","81","81,80","square,circle,hexagon,triangle,diamond","C","","","","","test","63","true","1","categorize-html","180","366638","0.0-6.0-126.0","25740","20230172","common"
"1765.9000000357628","false","square,hexagon","81","81,80","square,circle,hexagon,triangle,diamond","A","C","","","","test","64","true","1","categorize-html","182","369925","0.0-6.0-128.0","25740","20230172","common"
"1396","false","square,circle","81","81,80","square,circle,hexagon,triangle,diamond","A","B","","","","test","65","true","1","categorize-html","184","372845","0.0-6.0-130.0","25740","20230172","common"
"1317.5999999642372","false","hexagon","81","81,80","square,circle,hexagon,triangle,diamond","C","","","","","test","66","true","1","categorize-html","186","375696","0.0-6.0-132.0","25740","20230172","common"
"2496.400000035763","false","hexagon,square","81","81,80","square,circle,hexagon,triangle,diamond","C","A","","","","test","67","true","1","categorize-html","188","379712","0.0-6.0-134.0","25740","20230172","common"
"1466.5999999642372","false","hexagon,circle","80","81,80","square,circle,hexagon,triangle,diamond","C","B","","","","test","68","true","1","categorize-html","190","382701","0.0-6.0-136.0","25740","20230172","rare"
"2108.800000011921","false","circle,square","81","81,80","square,circle,hexagon,triangle,diamond","B","A","","","","test","69","true","1","categorize-html","192","386328","0.0-6.0-138.0","25740","20230172","common"
"959.0999999642372","false","square","81","81,80","square,circle,hexagon,triangle,diamond","A","","","","","test","70","true","1","categorize-html","194","388810","0.0-6.0-140.0","25740","20230172","common"
"702.8999999761581","false","square","81","81,80","square,circle,hexagon,triangle,diamond","A","","","","","test","71","true","1","categorize-html","196","391038","0.0-6.0-142.0","25740","20230172","common"
"695.6999999880791","false","circle","81","81,80","square,circle,hexagon,triangle,diamond","B","","","","","test","72","true","1","categorize-html","198","393259","0.0-6.0-144.0","25740","20230172","common"
"1281.300000011921","false","hexagon","80","81,80","square,circle,hexagon,triangle,diamond","C","","","","","test","73","true","1","categorize-html","201","397891","0.0-6.0-147.0","25740","20230172","rare"
"842","false","hexagon,square","80","81,80","square,circle,hexagon,triangle,diamond","C","A","","","","test","74","true","1","categorize-html","203","400268","0.0-6.0-149.0","25740","20230172","rare"
"1360.5999999642372","false","square,hexagon","80","81,80","square,circle,hexagon,triangle,diamond","A","C","","","","test","75","true","1","categorize-html","205","403154","0.0-6.0-151.0","25740","20230172","rare"
"620.3000000119209","false","square","81","81,80","square,circle,hexagon,triangle,diamond","A","","","","","test","76","true","1","categorize-html","207","405305","0.0-6.0-153.0","25740","20230172","common"
"1018.5","false","circle,square","81","81,80","square,circle,hexagon,triangle,diamond","B","A","","","","test","77","true","1","categorize-html","209","407855","0.0-6.0-155.0","25740","20230172","common"
"892.5","false","circle","81","81,80","square,circle,hexagon,triangle,diamond","B","","","","","test","78","true","1","categorize-html","211","410273","0.0-6.0-157.0","25740","20230172","common"
"347.60000002384186","false","circle,hexagon","80","81,80","square,circle,hexagon,triangle,diamond","B","C","","","","test","79","true","1","categorize-html","213","412149","0.0-6.0-159.0","25740","20230172","rare"
"308.5","false","square","81","81,80","square,circle,hexagon,triangle,diamond","A","","","","","test","80","true","1","categorize-html","215","413995","0.0-6.0-161.0","25740","20230172","common"
"1010","false","square,circle","81","81,80","square,circle,hexagon,triangle,diamond","A","B","","","","test","81","true","1","categorize-html","217","416536","0.0-6.0-163.0","25740","20230172","common"
"1205.0999999642372","false","circle","81","81,80","square,circle,hexagon,triangle,diamond","B","","","","","test","82","true","1","categorize-html","219","419271","0.0-6.0-165.0","25740","20230172","common"
"1669.6000000238419","false","hexagon","80","81,80","square,circle,hexagon,triangle,diamond","C","","","","","test","83","true","1","categorize-html","221","422467","0.0-6.0-167.0","25740","20230172","rare"
"1957.800000011921","false","hexagon,circle","80","81,80","square,circle,hexagon,triangle,diamond","C","B","","","","test","84","true","1","categorize-html","223","425954","0.0-6.0-169.0","25740","20230172","rare"
"783.5","false","square,hexagon","81","81,80","square,circle,hexagon,triangle,diamond","A","C","","","","test","85","true","1","categorize-html","225","428264","0.0-6.0-171.0","25740","20230172","common"
"1177.800000011921","false","square","81","81,80","square,circle,hexagon,triangle,diamond","A","","","","","test","86","true","1","categorize-html","227","430970","0.0-6.0-173.0","25740","20230172","common"
"312.80000001192093","false","circle","80","81,80","square,circle,hexagon,triangle,diamond","B","","","","","test","87","true","1","categorize-html","229","432814","0.0-6.0-175.0","25740","20230172","rare"
"326.5999999642372","false","square","80","81,80","square,circle,hexagon,triangle,diamond","A","","","","","test","88","true","1","categorize-html","231","434664","0.0-6.0-177.0","25740","20230172","rare"
"786.8000000119209","false","hexagon,circle","81","81,80","square,circle,hexagon,triangle,diamond","C","B","","","","test","89","true","1","categorize-html","233","436973","0.0-6.0-179.0","25740","20230172","common"
"2051.5","false","hexagon,square","81","81,80","square,circle,hexagon,triangle,diamond","C","A","","","","test","90","true","1","categorize-html","235","440556","0.0-6.0-181.0","25740","20230172","common"
"1570.0999999642372","false","square,circle","81","81,80","square,circle,hexagon,triangle,diamond","A","B","","","","test","91","true","1","categorize-html","237","443650","0.0-6.0-183.0","25740","20230172","common"
"1573.699999988079","false","hexagon","81","81,80","square,circle,hexagon,triangle,diamond","C","","","","","test","92","true","1","categorize-html","239","446760","0.0-6.0-185.0","25740","20230172","common"
"1077.800000011921","false","circle","81","81,80","square,circle,hexagon,triangle,diamond","B","","","","","test","93","true","1","categorize-html","241","449360","0.0-6.0-187.0","25740","20230172","common"
"1021.1999999880791","false","circle,hexagon","80","81,80","square,circle,hexagon,triangle,diamond","B","C","","","","test","94","true","1","categorize-html","243","451910","0.0-6.0-189.0","25740","20230172","rare"
"980","false","hexagon","81","81,80","square,circle,hexagon,triangle,diamond","C","","","","","test","95","true","1","categorize-html","245","454420","0.0-6.0-191.0","25740","20230172","common"
"922.6000000238419","false","circle,square","81","81,80","square,circle,hexagon,triangle,diamond","B","A","","","","test","96","true","1","categorize-html","247","456872","0.0-6.0-193.0","25740","20230172","common"
"874.6999999880791","false","circle","81","81,80","square,circle,hexagon,triangle,diamond","B","","","","","test","97","true","1","categorize-html","250","461387","0.0-6.0-196.0","25740","20230172","common"
"693.1000000238419","false","hexagon,circle","80","81,80","square,circle,hexagon,triangle,diamond","C","B","","","","test","98","true","1","categorize-html","252","463609","0.0-6.0-198.0","25740","20230172","rare"
"514.2000000476837","false","circle","81","81,80","square,circle,hexagon,triangle,diamond","B","","","","","test","99","true","1","categorize-html","254","465638","0.0-6.0-200.0","25740","20230172","common"
"678.1000000238419","false","square","81","81,80","square,circle,hexagon,triangle,diamond","A","","","","","test","100","true","1","categorize-html","256","467832","0.0-6.0-202.0","25740","20230172","common"
"261.89999997615814","false","square","81","81,80","square,circle,hexagon,triangle,diamond","A","","","","","test","101","true","1","categorize-html","258","469618","0.0-6.0-204.0","25740","20230172","common"
"363.19999998807907","false","hexagon","81","81,80","square,circle,hexagon,triangle,diamond","C","","","","","test","102","true","1","categorize-html","260","471518","0.0-6.0-206.0","25740","20230172","common"
"1494.5","false","square,circle","80","81,80","square,circle,hexagon,triangle,diamond","A","B","","","","test","103","true","1","categorize-html","262","474549","0.0-6.0-208.0","25740","20230172","rare"
"325.30000001192093","false","circle,square","81","81,80","square,circle,hexagon,triangle,diamond","B","A","","","","test","104","true","1","categorize-html","264","476397","0.0-6.0-210.0","25740","20230172","common"
"1160.6000000238419","false","hexagon","80","81,80","square,circle,hexagon,triangle,diamond","C","","","","","test","105","true","1","categorize-html","266","479082","0.0-6.0-212.0","25740","20230172","rare"
"3537.400000035763","false","hexagon,square","80","81,80","square,circle,hexagon,triangle,diamond","C","A","","","","test","106","true","1","categorize-html","268","484174","0.0-6.0-214.0","25740","20230172","rare"
"1164.300000011921","false","circle,hexagon","81","81,80","square,circle,hexagon,triangle,diamond","B","C","","","","test","107","true","1","categorize-html","270","486868","0.0-6.0-216.0","25740","20230172","common"
"286.89999997615814","false","square,hexagon","80","81,80","square,circle,hexagon,triangle,diamond","A","C","","","","test","108","true","1","categorize-html","272","488685","0.0-6.0-218.0","25740","20230172","rare"
"817.3000000119209","false","hexagon,circle","80","81,80","square,circle,hexagon,triangle,diamond","C","B","","","","test","109","true","1","categorize-html","274","491024","0.0-6.0-220.0","25740","20230172","rare"
"790.1999999880791","false","square","81","81,80","square,circle,hexagon,triangle,diamond","A","","","","","test","110","true","1","categorize-html","276","493352","0.0-6.0-222.0","25740","20230172","common"
"666.1000000238419","false","circle,square","81","81,80","square,circle,hexagon,triangle,diamond","B","A","","","","test","111","true","1","categorize-html","278","495535","0.0-6.0-224.0","25740","20230172","common"
"1163.6000000238419","false","square,hexagon","81","81,80","square,circle,hexagon,triangle,diamond","A","C","","","","test","112","true","1","categorize-html","280","498217","0.0-6.0-226.0","25740","20230172","common"
"2809.599999964237","false","square,circle","81","81,80","square,circle,hexagon,triangle,diamond","A","B","","","","test","113","true","1","categorize-html","282","502549","0.0-6.0-228.0","25740","20230172","common"
"1300.300000011921","false","hexagon,square","80","81,80","square,circle,hexagon,triangle,diamond","C","A","","","","test","114","true","1","categorize-html","284","505380","0.0-6.0-230.0","25740","20230172","rare"
"5544.600000023842","false","circle,hexagon","81","81,80","square,circle,hexagon,triangle,diamond","B","C","","","","test","115","true","1","categorize-html","286","512454","0.0-6.0-232.0","25740","20230172","common"
"933","false","circle","81","81,80","square,circle,hexagon,triangle,diamond","B","","","","","test","116","true","1","categorize-html","288","514932","0.0-6.0-234.0","25740","20230172","common"
"1764","false","hexagon","80","81,80","square,circle,hexagon,triangle,diamond","C","","","","","test","117","true","1","categorize-html","290","518220","0.0-6.0-236.0","25740","20230172","rare"
"1140.2999999523163","false","square","81","81,80","square,circle,hexagon,triangle,diamond","A","","","","","test","118","true","1","categorize-html","292","520893","0.0-6.0-238.0","25740","20230172","common"
"1784","false","hexagon","80","81,80","square,circle,hexagon,triangle,diamond","C","","","","","test","119","true","1","categorize-html","294","524204","0.0-6.0-240.0","25740","20230172","rare"
"1264.699999988079","false","circle","81","81,80","square,circle,hexagon,triangle,diamond","B","","","","","test","120","true","1","categorize-html","296","526997","0.0-6.0-242.0","25740","20230172","common"
