"rt","correct","stimulus","key_press","keys","symptoms_shuffle","symptom1","symptom2","symptom3","key","category","phase","trial","include","block","trial_type","trial_index","time_elapsed","internal_node_id","ppt","session","abresp"
"null","false","hexagon,square,triangle","null","80,81","triangle,square,circle,hexagon,diamond","D","B","A","80","common","training","1","true","1","categorize-html","4","48349","0.0-4.0-0.0","24295","202301422","none"
"1749.5999999996275","false","triangle,hexagon,square","32","80,81","triangle,square,circle,hexagon,diamond","A","D","B","80","common","training","2","true","1","categorize-html","6","51117","0.0-4.0-2.0","24295","202301422","none"
"2472","false","square,hexagon,triangle","32","80,81","triangle,square,circle,hexagon,diamond","B","D","A","80","common","training","3","true","1","categorize-html","8","54627","0.0-4.0-4.0","24295","202301422","none"
"2372.5","false","hexagon,square,triangle","32","80,81","triangle,square,circle,hexagon,diamond","D","B","A","80","common","training","4","true","1","categorize-html","10","58033","0.0-4.0-6.0","24295","202301422","none"
"1557.8999999994412","false","square,hexagon,triangle","32","80,81","triangle,square,circle,hexagon,diamond","B","D","A","80","common","training","5","true","1","categorize-html","12","60619","0.0-4.0-8.0","24295","202301422","none"
"1115.3999999994412","false","triangle,hexagon,square","32","80,81","triangle,square,circle,hexagon,diamond","A","D","B","80","common","training","6","true","1","categorize-html","14","62771","0.0-4.0-10.0","24295","202301422","none"
"1321.2999999998137","false","triangle,square,hexagon","32","80,81","triangle,square,circle,hexagon,diamond","A","B","D","80","common","training","7","true","1","categorize-html","16","65121","0.0-4.0-12.0","24295","202301422","none"
"927.5","false","diamond,triangle,circle","32","80,81","triangle,square,circle,hexagon,diamond","E","A","C","81","rare","training","8","true","1","categorize-html","18","67087","0.0-4.0-14.0","24295","202301422","none"
"810.6000000005588","false","hexagon,triangle,square","32","80,81","triangle,square,circle,hexagon,diamond","D","A","B","80","common","training","9","true","1","categorize-html","20","68925","0.0-4.0-16.0","24295","202301422","none"
"1084","false","triangle,square,hexagon","32","80,81","triangle,square,circle,hexagon,diamond","A","B","D","80","common","training","10","true","1","categorize-html","22","71039","0.0-4.0-18.0","24295","202301422","none"
"1002","false","square,triangle,hexagon","32","80,81","triangle,square,circle,hexagon,diamond","B","A","D","80","common","training","11","true","1","categorize-html","24","73060","0.0-4.0-20.0","24295","202301422","none"
"876.7000000001863","false","hexagon,square,triangle","32","80,81","triangle,square,circle,hexagon,diamond","D","B","A","80","common","training","12","true","1","categorize-html","26","74970","0.0-4.0-22.0","24295","202301422","none"
"560.5","false","square,triangle,hexagon","32","80,81","triangle,square,circle,hexagon,diamond","B","A","D","80","common","training","13","true","1","categorize-html","28","76571","0.0-4.0-24.0","24295","202301422","none"
"547.5999999996275","false","triangle,circle,diamond","32","80,81","triangle,square,circle,hexagon,diamond","A","C","E","81","rare","training","14","true","1","categorize-html","30","78156","0.0-4.0-26.0","24295","202301422","none"
"1008.4000000003725","false","square,hexagon,triangle","32","80,81","triangle,square,circle,hexagon,diamond","B","D","A","80","common","training","15","true","1","categorize-html","32","80205","0.0-4.0-28.0","24295","202301422","none"
"577.7999999998137","false","circle,triangle,diamond","32","80,81","triangle,square,circle,hexagon,diamond","C","A","E","81","rare","training","16","true","1","categorize-html","34","81823","0.0-4.0-30.0","24295","202301422","none"
"472.30000000074506","false","diamond,circle,triangle","32","80,81","triangle,square,circle,hexagon,diamond","E","C","A","81","rare","training","17","true","1","categorize-html","36","83313","0.0-4.0-32.0","24295","202301422","none"
"363.09999999962747","false","circle,diamond,triangle","32","80,81","triangle,square,circle,hexagon,diamond","C","E","A","81","rare","training","18","true","1","categorize-html","38","84699","0.0-4.0-34.0","24295","202301422","none"
"326.70000000018626","false","hexagon,triangle,square","32","80,81","triangle,square,circle,hexagon,diamond","D","A","B","80","common","training","19","true","1","categorize-html","40","86059","0.0-4.0-36.0","24295","202301422","none"
"349.5","false","triangle,diamond,circle","32","80,81","triangle,square,circle,hexagon,diamond","A","E","C","81","rare","training","20","true","1","categorize-html","42","87452","0.0-4.0-38.0","24295","202301422","none"
"288","false","square,triangle,hexagon","32","80,81","triangle,square,circle,hexagon,diamond","B","A","D","80","common","training","21","true","1","categorize-html","44","88770","0.0-4.0-40.0","24295","202301422","none"
"251.70000000018626","false","hexagon,triangle,square","32","80,81","triangle,square,circle,hexagon,diamond","D","A","B","80","common","training","22","true","1","categorize-html","46","90048","0.0-4.0-42.0","24295","202301422","none"
"286.5","false","triangle,hexagon,square","32","80,81","triangle,square,circle,hexagon,diamond","A","D","B","80","common","training","23","true","1","categorize-html","48","91366","0.0-4.0-44.0","24295","202301422","none"
"464.70000000018626","false","triangle,square,hexagon","32","80,81","triangle,square,circle,hexagon,diamond","A","B","D","80","common","training","24","true","1","categorize-html","50","92849","0.0-4.0-46.0","24295","202301422","none"
"2595.4000000003725","false","square","80","80,81","triangle,square,circle,hexagon,diamond","B","","","","","test","1","true","1","categorize-html","54","149165","0.0-6.0-0.0","24295","202301422","common"
"1411.7999999998137","false","square,circle","80","80,81","triangle,square,circle,hexagon,diamond","B","C","","","","test","2","true","1","categorize-html","56","152096","0.0-6.0-2.0","24295","202301422","common"
"1185.5","false","triangle","81","80,81","triangle,square,circle,hexagon,diamond","A","","","","","test","3","true","1","categorize-html","58","154816","0.0-6.0-4.0","24295","202301422","rare"
"815.3000000007451","false","square","81","80,81","triangle,square,circle,hexagon,diamond","B","","","","","test","4","true","1","categorize-html","60","157153","0.0-6.0-6.0","24295","202301422","rare"
"1085.2000000001863","false","circle,triangle","80","80,81","triangle,square,circle,hexagon,diamond","C","A","","","","test","5","true","1","categorize-html","62","159766","0.0-6.0-8.0","24295","202301422","common"
"1351.5999999996275","false","square,triangle","80","80,81","triangle,square,circle,hexagon,diamond","B","A","","","","test","6","true","1","categorize-html","64","162649","0.0-6.0-10.0","24295","202301422","common"
"937.4000000003725","false","triangle,square","80","80,81","triangle,square,circle,hexagon,diamond","A","B","","","","test","7","true","1","categorize-html","66","165104","0.0-6.0-12.0","24295","202301422","common"
"704.2000000001863","false","triangle","81","80,81","triangle,square,circle,hexagon,diamond","A","","","","","test","8","true","1","categorize-html","68","167342","0.0-6.0-14.0","24295","202301422","rare"
"891.7999999998137","false","triangle,circle","80","80,81","triangle,square,circle,hexagon,diamond","A","C","","","","test","9","true","1","categorize-html","70","169765","0.0-6.0-16.0","24295","202301422","common"
"700.2999999998137","false","circle","81","80,81","triangle,square,circle,hexagon,diamond","C","","","","","test","10","true","1","categorize-html","72","171989","0.0-6.0-18.0","24295","202301422","rare"
"417.6000000005588","false","circle","80","80,81","triangle,square,circle,hexagon,diamond","C","","","","","test","11","true","1","categorize-html","74","173930","0.0-6.0-20.0","24295","202301422","common"
"432.09999999962747","false","circle,square","81","80,81","triangle,square,circle,hexagon,diamond","C","B","","","","test","12","true","1","categorize-html","76","175882","0.0-6.0-22.0","24295","202301422","rare"
"345.29999999981374","false","triangle,circle","80","80,81","triangle,square,circle,hexagon,diamond","A","C","","","","test","13","true","1","categorize-html","78","177768","0.0-6.0-24.0","24295","202301422","common"
"525.3000000007451","false","circle","81","80,81","triangle,square,circle,hexagon,diamond","C","","","","","test","14","true","1","categorize-html","80","179812","0.0-6.0-26.0","24295","202301422","rare"
"530.1999999992549","false","square","81","80,81","triangle,square,circle,hexagon,diamond","B","","","","","test","15","true","1","categorize-html","82","181873","0.0-6.0-28.0","24295","202301422","rare"
"367","false","square,circle","81","80,81","triangle,square,circle,hexagon,diamond","B","C","","","","test","16","true","1","categorize-html","84","183766","0.0-6.0-30.0","24295","202301422","rare"
"578.5","false","square","81","80,81","triangle,square,circle,hexagon,diamond","B","","","","","test","17","true","1","categorize-html","86","185882","0.0-6.0-32.0","24295","202301422","rare"
"806.1000000005588","false","circle,square","81","80,81","triangle,square,circle,hexagon,diamond","C","B","","","","test","18","true","1","categorize-html","88","188214","0.0-6.0-34.0","24295","202301422","rare"
"589.3999999994412","false","circle","81","80,81","triangle,square,circle,hexagon,diamond","C","","","","","test","19","true","1","categorize-html","90","190326","0.0-6.0-36.0","24295","202301422","rare"
"563.2000000001863","false","triangle,square","80","80,81","triangle,square,circle,hexagon,diamond","A","B","","","","test","20","true","1","categorize-html","92","192422","0.0-6.0-38.0","24295","202301422","common"
"400.09999999962747","false","square,triangle","81","80,81","triangle,square,circle,hexagon,diamond","B","A","","","","test","21","true","1","categorize-html","94","194360","0.0-6.0-40.0","24295","202301422","rare"
"274.69999999925494","false","triangle","81","80,81","triangle,square,circle,hexagon,diamond","A","","","","","test","22","true","1","categorize-html","96","196168","0.0-6.0-42.0","24295","202301422","rare"
"512.7000000001863","false","circle,triangle","80","80,81","triangle,square,circle,hexagon,diamond","C","A","","","","test","23","true","1","categorize-html","98","198205","0.0-6.0-44.0","24295","202301422","common"
"438.5","false","triangle","80","80,81","triangle,square,circle,hexagon,diamond","A","","","","","test","24","true","1","categorize-html","100","200164","0.0-6.0-46.0","24295","202301422","common"
"895.8000000007451","false","square,circle","81","80,81","triangle,square,circle,hexagon,diamond","B","C","","","","test","25","true","1","categorize-html","103","211129","0.0-6.0-49.0","24295","202301422","rare"
"554.4000000003725","false","triangle","81","80,81","triangle,square,circle,hexagon,diamond","A","","","","","test","26","true","1","categorize-html","105","213210","0.0-6.0-51.0","24295","202301422","rare"
"514.6999999992549","false","triangle,circle","80","80,81","triangle,square,circle,hexagon,diamond","A","C","","","","test","27","true","1","categorize-html","107","215260","0.0-6.0-53.0","24295","202301422","common"
"688","false","circle,triangle","80","80,81","triangle,square,circle,hexagon,diamond","C","A","","","","test","28","true","1","categorize-html","109","217474","0.0-6.0-55.0","24295","202301422","common"
"715.3999999994412","false","circle,square","81","80,81","triangle,square,circle,hexagon,diamond","C","B","","","","test","29","true","1","categorize-html","111","219716","0.0-6.0-57.0","24295","202301422","rare"
"710.7000000001863","false","square","81","80,81","triangle,square,circle,hexagon,diamond","B","","","","","test","30","true","1","categorize-html","113","221969","0.0-6.0-59.0","24295","202301422","rare"
"816.2000000001863","false","triangle","80","80,81","triangle,square,circle,hexagon,diamond","A","","","","","test","31","true","1","categorize-html","115","224316","0.0-6.0-61.0","24295","202301422","common"
"832.5999999996275","false","circle","81","80,81","triangle,square,circle,hexagon,diamond","C","","","","","test","32","true","1","categorize-html","117","226682","0.0-6.0-63.0","24295","202301422","rare"
"296.79999999981374","false","circle","81","80,81","triangle,square,circle,hexagon,diamond","C","","","","","test","33","true","1","categorize-html","119","228494","0.0-6.0-65.0","24295","202301422","rare"
"284.70000000018626","false","triangle,square","81","80,81","triangle,square,circle,hexagon,diamond","A","B","","","","test","34","true","1","categorize-html","121","230321","0.0-6.0-67.0","24295","202301422","rare"
"275.3999999994412","false","square,triangle","81","80,81","triangle,square,circle,hexagon,diamond","B","A","","","","test","35","true","1","categorize-html","123","232137","0.0-6.0-69.0","24295","202301422","rare"
"274.90000000037253","false","square","81","80,81","triangle,square,circle,hexagon,diamond","B","","","","","test","36","true","1","categorize-html","125","233942","0.0-6.0-71.0","24295","202301422","rare"
"328.29999999981374","false","square","81","80,81","triangle,square,circle,hexagon,diamond","B","","","","","test","37","true","1","categorize-html","127","235800","0.0-6.0-73.0","24295","202301422","rare"
"656.8999999994412","false","triangle","80","80,81","triangle,square,circle,hexagon,diamond","A","","","","","test","38","true","1","categorize-html","129","237991","0.0-6.0-75.0","24295","202301422","common"
"633.5","false","square,circle","81","80,81","triangle,square,circle,hexagon,diamond","B","C","","","","test","39","true","1","categorize-html","131","240134","0.0-6.0-77.0","24295","202301422","rare"
"594","false","triangle,circle","80","80,81","triangle,square,circle,hexagon,diamond","A","C","","","","test","40","true","1","categorize-html","133","242246","0.0-6.0-79.0","24295","202301422","common"
"700.5","false","square","81","80,81","triangle,square,circle,hexagon,diamond","B","","","","","test","41","true","1","categorize-html","135","244480","0.0-6.0-81.0","24295","202301422","rare"
"528","false","triangle,square","80","80,81","triangle,square,circle,hexagon,diamond","A","B","","","","test","42","true","1","categorize-html","137","246532","0.0-6.0-83.0","24295","202301422","common"
"349","false","circle","81","80,81","triangle,square,circle,hexagon,diamond","C","","","","","test","43","true","1","categorize-html","139","248411","0.0-6.0-85.0","24295","202301422","rare"
"828.5999999996275","false","triangle","80","80,81","triangle,square,circle,hexagon,diamond","A","","","","","test","44","true","1","categorize-html","141","250756","0.0-6.0-87.0","24295","202301422","common"
"342.5","false","circle,square","81","80,81","triangle,square,circle,hexagon,diamond","C","B","","","","test","45","true","1","categorize-html","143","252622","0.0-6.0-89.0","24295","202301422","rare"
"425.09999999962747","false","square,triangle","81","80,81","triangle,square,circle,hexagon,diamond","B","A","","","","test","46","true","1","categorize-html","145","254581","0.0-6.0-91.0","24295","202301422","rare"
"802.1999999992549","false","circle","80","80,81","triangle,square,circle,hexagon,diamond","C","","","","","test","47","true","1","categorize-html","147","256910","0.0-6.0-93.0","24295","202301422","common"
"657","false","circle,triangle","80","80,81","triangle,square,circle,hexagon,diamond","C","A","","","","test","48","true","1","categorize-html","149","259085","0.0-6.0-95.0","24295","202301422","common"
"805.5","false","square,circle","81","80,81","triangle,square,circle,hexagon,diamond","B","C","","","","test","49","true","1","categorize-html","152","264259","0.0-6.0-98.0","24295","202301422","rare"
"446.5","false","square","81","80,81","triangle,square,circle,hexagon,diamond","B","","","","","test","50","true","1","categorize-html","154","266236","0.0-6.0-100.0","24295","202301422","rare"
"330.69999999925494","false","triangle,square","81","80,81","triangle,square,circle,hexagon,diamond","A","B","","","","test","51","true","1","categorize-html","156","268095","0.0-6.0-102.0","24295","202301422","rare"
"433.8999999994412","false","circle,square","80","80,81","triangle,square,circle,hexagon,diamond","C","B","","","","test","52","true","1","categorize-html","158","270076","0.0-6.0-104.0","24295","202301422","common"
"657.7999999998137","false","circle","81","80,81","triangle,square,circle,hexagon,diamond","C","","","","","test","53","true","1","categorize-html","160","272267","0.0-6.0-106.0","24295","202301422","rare"
"342.90000000037253","false","triangle","81","80,81","triangle,square,circle,hexagon,diamond","A","","","","","test","54","true","1","categorize-html","162","274142","0.0-6.0-108.0","24295","202301422","rare"
"471.79999999981374","false","square,triangle","81","80,81","triangle,square,circle,hexagon,diamond","B","A","","","","test","55","true","1","categorize-html","164","276145","0.0-6.0-110.0","24295","202301422","rare"
"640.2000000001863","false","triangle,circle","81","80,81","triangle,square,circle,hexagon,diamond","A","C","","","","test","56","true","1","categorize-html","166","278305","0.0-6.0-112.0","24295","202301422","rare"
"529.9000000003725","false","square","81","80,81","triangle,square,circle,hexagon,diamond","B","","","","","test","57","true","1","categorize-html","168","280354","0.0-6.0-114.0","24295","202301422","rare"
"473.90000000037253","false","circle,triangle","80","80,81","triangle,square,circle,hexagon,diamond","C","A","","","","test","58","true","1","categorize-html","170","282362","0.0-6.0-116.0","24295","202301422","common"
"463.5","false","circle","81","80,81","triangle,square,circle,hexagon,diamond","C","","","","","test","59","true","1","categorize-html","172","284349","0.0-6.0-118.0","24295","202301422","rare"
"352.59999999962747","false","triangle","81","80,81","triangle,square,circle,hexagon,diamond","A","","","","","test","60","true","1","categorize-html","174","286238","0.0-6.0-120.0","24295","202301422","rare"
"686.6999999992549","false","square,circle","81","80,81","triangle,square,circle,hexagon,diamond","B","C","","","","test","61","true","1","categorize-html","176","288463","0.0-6.0-122.0","24295","202301422","rare"
"493.20000000018626","false","square","81","80,81","triangle,square,circle,hexagon,diamond","B","","","","","test","62","true","1","categorize-html","178","290485","0.0-6.0-124.0","24295","202301422","rare"
"792.2000000001863","false","triangle","80","80,81","triangle,square,circle,hexagon,diamond","A","","","","","test","63","true","1","categorize-html","180","292795","0.0-6.0-126.0","24295","202301422","common"
"887.7999999998137","false","circle,square","80","80,81","triangle,square,circle,hexagon,diamond","C","B","","","","test","64","true","1","categorize-html","182","295219","0.0-6.0-128.0","24295","202301422","common"
"367","false","circle","81","80,81","triangle,square,circle,hexagon,diamond","C","","","","","test","65","true","1","categorize-html","184","297112","0.0-6.0-130.0","24295","202301422","rare"
"676.3999999994412","false","square,triangle","81","80,81","triangle,square,circle,hexagon,diamond","B","A","","","","test","66","true","1","categorize-html","186","299318","0.0-6.0-132.0","24295","202301422","rare"
"264.69999999925494","false","triangle,circle","81","80,81","triangle,square,circle,hexagon,diamond","A","C","","","","test","67","true","1","categorize-html","188","301117","0.0-6.0-134.0","24295","202301422","rare"
"364.09999999962747","false","triangle","81","80,81","triangle,square,circle,hexagon,diamond","A","","","","","test","68","true","1","categorize-html","190","303014","0.0-6.0-136.0","24295","202301422","rare"
"672.1000000005588","false","triangle,square","81","80,81","triangle,square,circle,hexagon,diamond","A","B","","","","test","69","true","1","categorize-html","192","305221","0.0-6.0-138.0","24295","202301422","rare"
"350.40000000037253","false","circle,triangle","80","80,81","triangle,square,circle,hexagon,diamond","C","A","","","","test","70","true","1","categorize-html","194","307097","0.0-6.0-140.0","24295","202301422","common"
"630.7000000001863","false","square","81","80,81","triangle,square,circle,hexagon,diamond","B","","","","","test","71","true","1","categorize-html","196","309264","0.0-6.0-142.0","24295","202301422","rare"
"578.2999999998137","false","circle","80","80,81","triangle,square,circle,hexagon,diamond","C","","","","","test","72","true","1","categorize-html","198","311366","0.0-6.0-144.0","24295","202301422","common"
"1379.0999999996275","false","circle","80","80,81","triangle,square,circle,hexagon,diamond","C","","","","","test","73","true","1","categorize-html","201","315605","0.0-6.0-147.0","24295","202301422","common"
"597.8999999994412","false","triangle","80","80,81","triangle,square,circle,hexagon,diamond","A","","","","","test","74","true","1","categorize-html","203","317738","0.0-6.0-149.0","24295","202301422","common"
"675.3000000007451","false","square","81","80,81","triangle,square,circle,hexagon,diamond","B","","","","","test","75","true","1","categorize-html","205","319939","0.0-6.0-151.0","24295","202301422","rare"
"481.70000000018626","false","square","81","80,81","triangle,square,circle,hexagon,diamond","B","","","","","test","76","true","1","categorize-html","207","321958","0.0-6.0-153.0","24295","202301422","rare"
"528.3999999994412","false","circle,triangle","80","80,81","triangle,square,circle,hexagon,diamond","C","A","","","","test","77","true","1","categorize-html","209","324008","0.0-6.0-155.0","24295","202301422","common"
"522.7000000001863","false","circle","81","80,81","triangle,square,circle,hexagon,diamond","C","","","","","test","78","true","1","categorize-html","211","326060","0.0-6.0-157.0","24295","202301422","rare"
"379.5","false","square,triangle","81","80,81","triangle,square,circle,hexagon,diamond","B","A","","","","test","79","true","1","categorize-html","213","327971","0.0-6.0-159.0","24295","202301422","rare"
"258.80000000074506","false","circle,square","81","80,81","triangle,square,circle,hexagon,diamond","C","B","","","","test","80","true","1","categorize-html","215","329767","0.0-6.0-161.0","24295","202301422","rare"
"357.1000000005588","false","triangle,circle","81","80,81","triangle,square,circle,hexagon,diamond","A","C","","","","test","81","true","1","categorize-html","217","331659","0.0-6.0-163.0","24295","202301422","rare"
"712","false","triangle,square","81","80,81","triangle,square,circle,hexagon,diamond","A","B","","","","test","82","true","1","categorize-html","219","333897","0.0-6.0-165.0","24295","202301422","rare"
"626.2999999998137","false","triangle","80","80,81","triangle,square,circle,hexagon,diamond","A","","","","","test","83","true","1","categorize-html","221","336056","0.0-6.0-167.0","24295","202301422","common"
"706.2000000001863","false","square,circle","81","80,81","triangle,square,circle,hexagon,diamond","B","C","","","","test","84","true","1","categorize-html","223","338292","0.0-6.0-169.0","24295","202301422","rare"
"433.3999999994412","false","square","81","80,81","triangle,square,circle,hexagon,diamond","B","","","","","test","85","true","1","categorize-html","225","340249","0.0-6.0-171.0","24295","202301422","rare"
"774.7999999998137","false","triangle","81","80,81","triangle,square,circle,hexagon,diamond","A","","","","","test","86","true","1","categorize-html","227","342548","0.0-6.0-173.0","24295","202301422","rare"
"507.79999999981374","false","triangle,circle","80","80,81","triangle,square,circle,hexagon,diamond","A","C","","","","test","87","true","1","categorize-html","229","344587","0.0-6.0-175.0","24295","202301422","common"
"973.5","false","square","81","80,81","triangle,square,circle,hexagon,diamond","B","","","","","test","88","true","1","categorize-html","231","347085","0.0-6.0-177.0","24295","202301422","rare"
"355.09999999962747","false","circle,square","81","80,81","triangle,square,circle,hexagon,diamond","C","B","","","","test","89","true","1","categorize-html","233","348968","0.0-6.0-179.0","24295","202301422","rare"
"329.09999999962747","false","square,triangle","81","80,81","triangle,square,circle,hexagon,diamond","B","A","","","","test","90","true","1","categorize-html","235","350826","0.0-6.0-181.0","24295","202301422","rare"
"526.7000000001863","false","circle","81","80,81","triangle,square,circle,hexagon,diamond","C","","","","","test","91","true","1","categorize-html","237","352892","0.0-6.0-183.0","24295","202301422","rare"
"346.5","false","circle","81","80,81","triangle,square,circle,hexagon,diamond","C","","","","","test","92","true","1","categorize-html","239","354775","0.0-6.0-185.0","24295","202301422","rare"
"651.3999999994412","false","triangle,square","81","80,81","triangle,square,circle,hexagon,diamond","A","B","","","","test","93","true","1","categorize-html","241","356958","0.0-6.0-187.0","24295","202301422","rare"
"626.9000000003725","false","circle,triangle","81","80,81","triangle,square,circle,hexagon,diamond","C","A","","","","test","94","true","1","categorize-html","243","359128","0.0-6.0-189.0","24295","202301422","rare"
"1019.7999999998137","false","triangle","81","80,81","triangle,square,circle,hexagon,diamond","A","","","","","test","95","true","1","categorize-html","245","361670","0.0-6.0-191.0","24295","202301422","rare"
"326","false","square,circle","81","80,81","triangle,square,circle,hexagon,diamond","B","C","","","","test","96","true","1","categorize-html","247","363530","0.0-6.0-193.0","24295","202301422","rare"
"522.2000000001863","false","circle","81","80,81","triangle,square,circle,hexagon,diamond","C","","","","","test","97","true","1","categorize-html","250","367006","0.0-6.0-196.0","24295","202301422","rare"
"317.09999999962747","false","circle","81","80,81","triangle,square,circle,hexagon,diamond","C","","","","","test","98","true","1","categorize-html","252","368850","0.0-6.0-198.0","24295","202301422","rare"
"515.6000000005588","false","triangle,square","81","80,81","triangle,square,circle,hexagon,diamond","A","B","","","","test","99","true","1","categorize-html","254","370902","0.0-6.0-200.0","24295","202301422","rare"
"628.1000000005588","false","circle,square","81","80,81","triangle,square,circle,hexagon,diamond","C","B","","","","test","100","true","1","categorize-html","256","373058","0.0-6.0-202.0","24295","202301422","rare"
"299.3999999994412","false","square","81","80,81","triangle,square,circle,hexagon,diamond","B","","","","","test","101","true","1","categorize-html","258","374890","0.0-6.0-204.0","24295","202301422","rare"
"277.80000000074506","false","square","81","80,81","triangle,square,circle,hexagon,diamond","B","","","","","test","102","true","1","categorize-html","260","376707","0.0-6.0-206.0","24295","202301422","rare"
"281.59999999962747","false","circle,triangle","81","80,81","triangle,square,circle,hexagon,diamond","C","A","","","","test","103","true","1","categorize-html","262","378525","0.0-6.0-208.0","24295","202301422","rare"
"535.2999999998137","false","square,circle","81","80,81","triangle,square,circle,hexagon,diamond","B","C","","","","test","104","true","1","categorize-html","264","380585","0.0-6.0-210.0","24295","202301422","rare"
"700.8999999994412","false","triangle","80","80,81","triangle,square,circle,hexagon,diamond","A","","","","","test","105","true","1","categorize-html","266","382808","0.0-6.0-212.0","24295","202301422","common"
"611.7000000001863","false","square,triangle","81","80,81","triangle,square,circle,hexagon,diamond","B","A","","","","test","106","true","1","categorize-html","268","384951","0.0-6.0-214.0","24295","202301422","rare"
"410.20000000018626","false","triangle,circle","81","80,81","triangle,square,circle,hexagon,diamond","A","C","","","","test","107","true","1","categorize-html","270","386875","0.0-6.0-216.0","24295","202301422","rare"
"901.5","false","triangle","81","80,81","triangle,square,circle,hexagon,diamond","A","","","","","test","108","true","1","categorize-html","272","389317","0.0-6.0-218.0","24295","202301422","rare"
"961.6000000005588","false","circle","81","80,81","triangle,square,circle,hexagon,diamond","C","","","","","test","109","true","1","categorize-html","274","391802","0.0-6.0-220.0","24295","202301422","rare"
"699.1000000005588","false","circle,square","81","80,81","triangle,square,circle,hexagon,diamond","C","B","","","","test","110","true","1","categorize-html","276","394016","0.0-6.0-222.0","24295","202301422","rare"
"926.7000000001863","false","square","81","80,81","triangle,square,circle,hexagon,diamond","B","","","","","test","111","true","1","categorize-html","278","396466","0.0-6.0-224.0","24295","202301422","rare"
"620.5999999996275","false","square,circle","81","80,81","triangle,square,circle,hexagon,diamond","B","C","","","","test","112","true","1","categorize-html","280","398618","0.0-6.0-226.0","24295","202301422","rare"
"287.79999999981374","false","circle,triangle","81","80,81","triangle,square,circle,hexagon,diamond","C","A","","","","test","113","true","1","categorize-html","282","400437","0.0-6.0-228.0","24295","202301422","rare"
"520.5","false","triangle,circle","80","80,81","triangle,square,circle,hexagon,diamond","A","C","","","","test","114","true","1","categorize-html","284","402487","0.0-6.0-230.0","24295","202301422","common"
"614","false","circle","80","80,81","triangle,square,circle,hexagon,diamond","C","","","","","test","115","true","1","categorize-html","286","404631","0.0-6.0-232.0","24295","202301422","common"
"413","false","triangle","81","80,81","triangle,square,circle,hexagon,diamond","A","","","","","test","116","true","1","categorize-html","288","406561","0.0-6.0-234.0","24295","202301422","rare"
"559.0999999996275","false","square,triangle","81","80,81","triangle,square,circle,hexagon,diamond","B","A","","","","test","117","true","1","categorize-html","290","408641","0.0-6.0-236.0","24295","202301422","rare"
"738.7000000001863","false","triangle","80","80,81","triangle,square,circle,hexagon,diamond","A","","","","","test","118","true","1","categorize-html","292","410920","0.0-6.0-238.0","24295","202301422","common"
"848.5999999996275","false","triangle,square","81","80,81","triangle,square,circle,hexagon,diamond","A","B","","","","test","119","true","1","categorize-html","294","413304","0.0-6.0-240.0","24295","202301422","rare"
"862.2000000001863","false","square","81","80,81","triangle,square,circle,hexagon,diamond","B","","","","","test","120","true","1","categorize-html","296","415697","0.0-6.0-242.0","24295","202301422","rare"
