"rt","correct","stimulus","key_press","keys","symptoms_shuffle","symptom1","symptom2","symptom3","key","category","phase","trial","include","block","trial_type","trial_index","time_elapsed","internal_node_id","ppt","session","abresp"
"null","false","diamond,hexagon,circle","null","81,80","circle,square,diamond,triangle,hexagon","C","E","A","80","rare","training","1","true","1","categorize-html","4","157706","0.0-4.0-0.0","24131","202301318","none"
"3757.399999856949","false","circle,hexagon,diamond","32","81,80","circle,square,diamond,triangle,hexagon","A","E","C","80","rare","training","2","true","1","categorize-html","6","162498","0.0-4.0-2.0","24131","202301318","none"
"2759.2999999523163","false","square,triangle,circle","32","81,80","circle,square,diamond,triangle,hexagon","B","D","A","81","common","training","3","true","1","categorize-html","8","166286","0.0-4.0-4.0","24131","202301318","none"
"3290.5","false","triangle,square,circle","32","81,80","circle,square,diamond,triangle,hexagon","D","B","A","81","common","training","4","true","1","categorize-html","10","170610","0.0-4.0-6.0","24131","202301318","none"
"3616.5","false","triangle,square,circle","32","81,80","circle,square,diamond,triangle,hexagon","D","B","A","81","common","training","5","true","1","categorize-html","12","175258","0.0-4.0-8.0","24131","202301318","none"
"2812.899999856949","false","circle,square,triangle","32","81,80","circle,square,diamond,triangle,hexagon","A","B","D","81","common","training","6","true","1","categorize-html","14","179106","0.0-4.0-10.0","24131","202301318","none"
"3170.7000000476837","false","square,circle,triangle","32","81,80","circle,square,diamond,triangle,hexagon","B","A","D","81","common","training","7","true","1","categorize-html","16","183301","0.0-4.0-12.0","24131","202301318","none"
"3621.5","false","circle,triangle,square","32","81,80","circle,square,diamond,triangle,hexagon","A","D","B","81","common","training","8","true","1","categorize-html","18","187939","0.0-4.0-14.0","24131","202301318","none"
"3502.4000000953674","false","triangle,square,circle","32","81,80","circle,square,diamond,triangle,hexagon","D","B","A","81","common","training","9","true","1","categorize-html","20","192463","0.0-4.0-16.0","24131","202301318","none"
"3221.300000190735","false","triangle,circle,square","32","81,80","circle,square,diamond,triangle,hexagon","D","A","B","81","common","training","10","true","1","categorize-html","22","196709","0.0-4.0-18.0","24131","202301318","none"
"2646.2000000476837","false","square,circle,triangle","32","81,80","circle,square,diamond,triangle,hexagon","B","A","D","81","common","training","11","true","1","categorize-html","24","200371","0.0-4.0-20.0","24131","202301318","none"
"3339.600000143051","false","hexagon,circle,diamond","32","81,80","circle,square,diamond,triangle,hexagon","E","A","C","80","rare","training","12","true","1","categorize-html","26","204734","0.0-4.0-22.0","24131","202301318","none"
"3987.5999999046326","false","diamond,circle,hexagon","32","81,80","circle,square,diamond,triangle,hexagon","C","A","E","80","rare","training","13","true","1","categorize-html","28","209740","0.0-4.0-24.0","24131","202301318","none"
"3034.7000000476837","false","circle,square,triangle","32","81,80","circle,square,diamond,triangle,hexagon","A","B","D","81","common","training","14","true","1","categorize-html","30","213788","0.0-4.0-26.0","24131","202301318","none"
"2644","false","circle,triangle,square","32","81,80","circle,square,diamond,triangle,hexagon","A","D","B","81","common","training","15","true","1","categorize-html","32","217462","0.0-4.0-28.0","24131","202301318","none"
"2209.0999999046326","false","square,triangle,circle","32","81,80","circle,square,diamond,triangle,hexagon","B","D","A","81","common","training","16","true","1","categorize-html","34","220702","0.0-4.0-30.0","24131","202301318","none"
"2991.5999999046326","false","square,circle,triangle","32","81,80","circle,square,diamond,triangle,hexagon","B","A","D","81","common","training","17","true","1","categorize-html","36","224732","0.0-4.0-32.0","24131","202301318","none"
"3045.9000000953674","false","circle,diamond,hexagon","32","81,80","circle,square,diamond,triangle,hexagon","A","C","E","80","rare","training","18","true","1","categorize-html","38","228817","0.0-4.0-34.0","24131","202301318","none"
"2928.699999809265","false","hexagon,diamond,circle","32","81,80","circle,square,diamond,triangle,hexagon","E","C","A","80","rare","training","19","true","1","categorize-html","40","232775","0.0-4.0-36.0","24131","202301318","none"
"2370.7999999523163","false","square,triangle,circle","32","81,80","circle,square,diamond,triangle,hexagon","B","D","A","81","common","training","20","true","1","categorize-html","42","236169","0.0-4.0-38.0","24131","202301318","none"
"2484.5","false","circle,square,triangle","32","81,80","circle,square,diamond,triangle,hexagon","A","B","D","81","common","training","21","true","1","categorize-html","44","239683","0.0-4.0-40.0","24131","202301318","none"
"1942.7999999523163","false","triangle,circle,square","32","81,80","circle,square,diamond,triangle,hexagon","D","A","B","81","common","training","22","true","1","categorize-html","46","242640","0.0-4.0-42.0","24131","202301318","none"
"2382.100000143051","false","triangle,circle,square","32","81,80","circle,square,diamond,triangle,hexagon","D","A","B","81","common","training","23","true","1","categorize-html","48","246058","0.0-4.0-44.0","24131","202301318","none"
"1926.5","false","circle,triangle,square","32","81,80","circle,square,diamond,triangle,hexagon","A","D","B","81","common","training","24","true","1","categorize-html","50","249021","0.0-4.0-46.0","24131","202301318","none"
"3244.5","false","circle,diamond,hexagon","32","81,80","circle,square,diamond,triangle,hexagon","A","C","E","80","rare","training","25","true","2","categorize-html","53","265568","0.0-4.0-49.0","24131","202301318","none"
"2763.5","false","circle,square,triangle","32","81,80","circle,square,diamond,triangle,hexagon","A","B","D","81","common","training","26","true","2","categorize-html","55","269353","0.0-4.0-51.0","24131","202301318","none"
"3426.5","false","triangle,circle,square","32","81,80","circle,square,diamond,triangle,hexagon","D","A","B","81","common","training","27","true","2","categorize-html","57","273817","0.0-4.0-53.0","24131","202301318","none"
"2990.2999999523163","false","circle,square,triangle","32","81,80","circle,square,diamond,triangle,hexagon","A","B","D","81","common","training","28","true","2","categorize-html","59","277827","0.0-4.0-55.0","24131","202301318","none"
"null","false","triangle,circle,square","null","81,80","circle,square,diamond,triangle,hexagon","D","A","B","81","common","training","29","true","2","categorize-html","61","283871","0.0-4.0-57.0","24131","202301318","none"
"null","false","circle,hexagon,diamond","null","81,80","circle,square,diamond,triangle,hexagon","A","E","C","80","rare","training","30","true","2","categorize-html","63","289922","0.0-4.0-59.0","24131","202301318","none"
"3297.399999856949","false","circle,triangle,square","32","81,80","circle,square,diamond,triangle,hexagon","A","D","B","81","common","training","31","true","2","categorize-html","65","294244","0.0-4.0-61.0","24131","202301318","none"
"1939.2999999523163","false","square,triangle,circle","32","81,80","circle,square,diamond,triangle,hexagon","B","D","A","81","common","training","32","true","2","categorize-html","67","297204","0.0-4.0-63.0","24131","202301318","none"
"1279.2999999523163","false","square,triangle,circle","32","81,80","circle,square,diamond,triangle,hexagon","B","D","A","81","common","training","33","true","2","categorize-html","69","299514","0.0-4.0-65.0","24131","202301318","none"
"1590.2000000476837","false","square,triangle,circle","32","81,80","circle,square,diamond,triangle,hexagon","B","D","A","81","common","training","34","true","2","categorize-html","71","302138","0.0-4.0-67.0","24131","202301318","none"
"2550.7000000476837","false","triangle,square,circle","32","81,80","circle,square,diamond,triangle,hexagon","D","B","A","81","common","training","35","true","2","categorize-html","73","305702","0.0-4.0-69.0","24131","202301318","none"
"963.6000001430511","false","diamond,hexagon,circle","32","81,80","circle,square,diamond,triangle,hexagon","C","E","A","80","rare","training","36","true","2","categorize-html","75","307683","0.0-4.0-71.0","24131","202301318","none"
"929.4000000953674","false","triangle,square,circle","32","81,80","circle,square,diamond,triangle,hexagon","D","B","A","81","common","training","37","true","2","categorize-html","77","309653","0.0-4.0-73.0","24131","202301318","none"
"1213.0999999046326","false","circle,square,triangle","32","81,80","circle,square,diamond,triangle,hexagon","A","B","D","81","common","training","38","true","2","categorize-html","79","311888","0.0-4.0-75.0","24131","202301318","none"
"853.2999999523163","false","triangle,circle,square","32","81,80","circle,square,diamond,triangle,hexagon","D","A","B","81","common","training","39","true","2","categorize-html","81","313757","0.0-4.0-77.0","24131","202301318","none"
"1059.5999999046326","false","triangle,square,circle","32","81,80","circle,square,diamond,triangle,hexagon","D","B","A","81","common","training","40","true","2","categorize-html","83","315839","0.0-4.0-79.0","24131","202301318","none"
"919.7000000476837","false","diamond,circle,hexagon","32","81,80","circle,square,diamond,triangle,hexagon","C","A","E","80","rare","training","41","true","2","categorize-html","85","317790","0.0-4.0-81.0","24131","202301318","none"
"1129.9000000953674","false","circle,triangle,square","32","81,80","circle,square,diamond,triangle,hexagon","A","D","B","81","common","training","42","true","2","categorize-html","87","319931","0.0-4.0-83.0","24131","202301318","none"
"1424.7999999523163","false","square,circle,triangle","32","81,80","circle,square,diamond,triangle,hexagon","B","A","D","81","common","training","43","true","2","categorize-html","89","322390","0.0-4.0-85.0","24131","202301318","none"
"1977.2999999523163","false","hexagon,circle,diamond","32","81,80","circle,square,diamond,triangle,hexagon","E","A","C","80","rare","training","44","true","2","categorize-html","91","325398","0.0-4.0-87.0","24131","202301318","none"
"1721","false","hexagon,diamond,circle","32","81,80","circle,square,diamond,triangle,hexagon","E","C","A","80","rare","training","45","true","2","categorize-html","93","328153","0.0-4.0-89.0","24131","202301318","none"
"2170.899999856949","false","square,circle,triangle","32","81,80","circle,square,diamond,triangle,hexagon","B","A","D","81","common","training","46","true","2","categorize-html","95","331360","0.0-4.0-91.0","24131","202301318","none"
"1334","false","square,circle,triangle","32","81,80","circle,square,diamond,triangle,hexagon","B","A","D","81","common","training","47","true","2","categorize-html","97","333722","0.0-4.0-93.0","24131","202301318","none"
"1488","false","circle,triangle,square","32","81,80","circle,square,diamond,triangle,hexagon","A","D","B","81","common","training","48","true","2","categorize-html","99","336235","0.0-4.0-95.0","24131","202301318","none"
"1126.1000001430511","false","square","81","81,80","circle,square,diamond,triangle,hexagon","B","","","","","test","1","true","1","categorize-html","103","378668","0.0-6.0-0.0","24131","202301318","common"
"785.5999999046326","false","circle,square","81","81,80","circle,square,diamond,triangle,hexagon","A","B","","","","test","2","true","1","categorize-html","105","380969","0.0-6.0-2.0","24131","202301318","common"
"417.80000019073486","false","square,circle","81","81,80","circle,square,diamond,triangle,hexagon","B","A","","","","test","3","true","1","categorize-html","107","382915","0.0-6.0-4.0","24131","202301318","common"
"415.5","false","diamond","80","81,80","circle,square,diamond,triangle,hexagon","C","","","","","test","4","true","1","categorize-html","109","384859","0.0-6.0-6.0","24131","202301318","rare"
"655.7000000476837","false","circle,diamond","80","81,80","circle,square,diamond,triangle,hexagon","A","C","","","","test","5","true","1","categorize-html","111","387032","0.0-6.0-8.0","24131","202301318","rare"
"719.9000000953674","false","diamond,square","80","81,80","circle,square,diamond,triangle,hexagon","C","B","","","","test","6","true","1","categorize-html","113","389281","0.0-6.0-10.0","24131","202301318","rare"
"692.4000000953674","false","circle","81","81,80","circle,square,diamond,triangle,hexagon","A","","","","","test","7","true","1","categorize-html","115","391491","0.0-6.0-12.0","24131","202301318","common"
"935.2000000476837","false","square,diamond","80","81,80","circle,square,diamond,triangle,hexagon","B","C","","","","test","8","true","1","categorize-html","117","393967","0.0-6.0-14.0","24131","202301318","rare"
"1024.2999999523163","false","circle","81","81,80","circle,square,diamond,triangle,hexagon","A","","","","","test","9","true","1","categorize-html","119","396522","0.0-6.0-16.0","24131","202301318","common"
"671.2999999523163","false","diamond,circle","80","81,80","circle,square,diamond,triangle,hexagon","C","A","","","","test","10","true","1","categorize-html","121","398713","0.0-6.0-18.0","24131","202301318","rare"
"522.0999999046326","false","diamond","80","81,80","circle,square,diamond,triangle,hexagon","C","","","","","test","11","true","1","categorize-html","123","400763","0.0-6.0-20.0","24131","202301318","rare"
"804","false","square","81","81,80","circle,square,diamond,triangle,hexagon","B","","","","","test","12","true","1","categorize-html","125","403090","0.0-6.0-22.0","24131","202301318","common"
"808.4000000953674","false","circle","81","81,80","circle,square,diamond,triangle,hexagon","A","","","","","test","13","true","1","categorize-html","127","405423","0.0-6.0-24.0","24131","202301318","common"
"966","false","square","81","81,80","circle,square,diamond,triangle,hexagon","B","","","","","test","14","true","1","categorize-html","129","407921","0.0-6.0-26.0","24131","202301318","common"
"984.0999999046326","false","square","81","81,80","circle,square,diamond,triangle,hexagon","B","","","","","test","15","true","1","categorize-html","131","410426","0.0-6.0-28.0","24131","202301318","common"
"457.60000014305115","false","diamond","80","81,80","circle,square,diamond,triangle,hexagon","C","","","","","test","16","true","1","categorize-html","133","412411","0.0-6.0-30.0","24131","202301318","rare"
"552.7999999523163","false","diamond,circle","80","81,80","circle,square,diamond,triangle,hexagon","C","A","","","","test","17","true","1","categorize-html","135","414495","0.0-6.0-32.0","24131","202301318","rare"
"533.9000000953674","false","circle","81","81,80","circle,square,diamond,triangle,hexagon","A","","","","","test","18","true","1","categorize-html","137","416546","0.0-6.0-34.0","24131","202301318","common"
"736","false","square,circle","81","81,80","circle,square,diamond,triangle,hexagon","B","A","","","","test","19","true","1","categorize-html","139","418820","0.0-6.0-36.0","24131","202301318","common"
"749.5","false","square,diamond","80","81,80","circle,square,diamond,triangle,hexagon","B","C","","","","test","20","true","1","categorize-html","141","421100","0.0-6.0-38.0","24131","202301318","rare"
"855.8000001907349","false","circle,diamond","80","81,80","circle,square,diamond,triangle,hexagon","A","C","","","","test","21","true","1","categorize-html","143","423495","0.0-6.0-40.0","24131","202301318","rare"
"836.6000001430511","false","diamond,square","80","81,80","circle,square,diamond,triangle,hexagon","C","B","","","","test","22","true","1","categorize-html","145","425862","0.0-6.0-42.0","24131","202301318","rare"
"464.2000000476837","false","diamond","80","81,80","circle,square,diamond,triangle,hexagon","C","","","","","test","23","true","1","categorize-html","147","427858","0.0-6.0-44.0","24131","202301318","rare"
"517.2000000476837","false","circle,square","81","81,80","circle,square,diamond,triangle,hexagon","A","B","","","","test","24","true","1","categorize-html","149","429884","0.0-6.0-46.0","24131","202301318","common"
"990.0999999046326","false","circle","81","81,80","circle,square,diamond,triangle,hexagon","A","","","","","test","25","true","1","categorize-html","152","435062","0.0-6.0-49.0","24131","202301318","common"
"517.8999998569489","false","square,diamond","80","81,80","circle,square,diamond,triangle,hexagon","B","C","","","","test","26","true","1","categorize-html","154","437116","0.0-6.0-51.0","24131","202301318","rare"
"511.2999999523163","false","circle,diamond","80","81,80","circle,square,diamond,triangle,hexagon","A","C","","","","test","27","true","1","categorize-html","156","439145","0.0-6.0-53.0","24131","202301318","rare"
"409.5","false","circle,square","81","81,80","circle,square,diamond,triangle,hexagon","A","B","","","","test","28","true","1","categorize-html","158","441084","0.0-6.0-55.0","24131","202301318","common"
"407.19999980926514","false","circle","81","81,80","circle,square,diamond,triangle,hexagon","A","","","","","test","29","true","1","categorize-html","160","443025","0.0-6.0-57.0","24131","202301318","common"
"674.5","false","diamond,circle","80","81,80","circle,square,diamond,triangle,hexagon","C","A","","","","test","30","true","1","categorize-html","162","445229","0.0-6.0-59.0","24131","202301318","rare"
"531.8999998569489","false","diamond","80","81,80","circle,square,diamond,triangle,hexagon","C","","","","","test","31","true","1","categorize-html","164","447282","0.0-6.0-61.0","24131","202301318","rare"
"989.7999999523163","false","square","81","81,80","circle,square,diamond,triangle,hexagon","B","","","","","test","32","true","1","categorize-html","166","449791","0.0-6.0-63.0","24131","202301318","common"
"563.7999999523163","false","diamond,square","80","81,80","circle,square,diamond,triangle,hexagon","C","B","","","","test","33","true","1","categorize-html","168","451887","0.0-6.0-65.0","24131","202301318","rare"
"407","false","square","81","81,80","circle,square,diamond,triangle,hexagon","B","","","","","test","34","true","1","categorize-html","170","453811","0.0-6.0-67.0","24131","202301318","common"
"457","false","diamond","80","81,80","circle,square,diamond,triangle,hexagon","C","","","","","test","35","true","1","categorize-html","172","455798","0.0-6.0-69.0","24131","202301318","rare"
"457.5","false","square,circle","81","81,80","circle,square,diamond,triangle,hexagon","B","A","","","","test","36","true","1","categorize-html","174","457775","0.0-6.0-71.0","24131","202301318","common"
"510.89999985694885","false","square,diamond","80","81,80","circle,square,diamond,triangle,hexagon","B","C","","","","test","37","true","1","categorize-html","176","459813","0.0-6.0-73.0","24131","202301318","rare"
"746.2999999523163","false","square","81","81,80","circle,square,diamond,triangle,hexagon","B","","","","","test","38","true","1","categorize-html","178","462079","0.0-6.0-75.0","24131","202301318","common"
"600.7000000476837","false","circle,square","81","81,80","circle,square,diamond,triangle,hexagon","A","B","","","","test","39","true","1","categorize-html","180","464217","0.0-6.0-77.0","24131","202301318","common"
"477","false","diamond,square","80","81,80","circle,square,diamond,triangle,hexagon","C","B","","","","test","40","true","1","categorize-html","182","466215","0.0-6.0-79.0","24131","202301318","rare"
"927","false","diamond","80","81,80","circle,square,diamond,triangle,hexagon","C","","","","","test","41","true","1","categorize-html","184","468670","0.0-6.0-81.0","24131","202301318","rare"
"541.9000000953674","false","square","81","81,80","circle,square,diamond,triangle,hexagon","B","","","","","test","42","true","1","categorize-html","186","470745","0.0-6.0-83.0","24131","202301318","common"
"436.39999985694885","false","diamond","80","81,80","circle,square,diamond,triangle,hexagon","C","","","","","test","43","true","1","categorize-html","188","472727","0.0-6.0-85.0","24131","202301318","rare"
"477.60000014305115","false","square,circle","81","81,80","circle,square,diamond,triangle,hexagon","B","A","","","","test","44","true","1","categorize-html","190","474727","0.0-6.0-87.0","24131","202301318","common"
"522","false","circle","81","81,80","circle,square,diamond,triangle,hexagon","A","","","","","test","45","true","1","categorize-html","192","476778","0.0-6.0-89.0","24131","202301318","common"
"641.0999999046326","false","diamond,circle","80","81,80","circle,square,diamond,triangle,hexagon","C","A","","","","test","46","true","1","categorize-html","194","478938","0.0-6.0-91.0","24131","202301318","rare"
"722.2999999523163","false","circle","80","81,80","circle,square,diamond,triangle,hexagon","A","","","","","test","47","true","1","categorize-html","196","481189","0.0-6.0-93.0","24131","202301318","rare"
"423.60000014305115","false","circle,diamond","80","81,80","circle,square,diamond,triangle,hexagon","A","C","","","","test","48","true","1","categorize-html","198","483147","0.0-6.0-95.0","24131","202301318","rare"
"465.59999990463257","false","circle","81","81,80","circle,square,diamond,triangle,hexagon","A","","","","","test","49","true","1","categorize-html","201","486959","0.0-6.0-98.0","24131","202301318","common"
"404.59999990463257","false","circle,square","81","81,80","circle,square,diamond,triangle,hexagon","A","B","","","","test","50","true","1","categorize-html","203","488903","0.0-6.0-100.0","24131","202301318","common"
"299.09999990463257","false","circle,diamond","80","81,80","circle,square,diamond,triangle,hexagon","A","C","","","","test","51","true","1","categorize-html","205","490735","0.0-6.0-102.0","24131","202301318","rare"
"502.5","false","square","81","81,80","circle,square,diamond,triangle,hexagon","B","","","","","test","52","true","1","categorize-html","207","492770","0.0-6.0-104.0","24131","202301318","common"
"444.2999999523163","false","diamond,square","80","81,80","circle,square,diamond,triangle,hexagon","C","B","","","","test","53","true","1","categorize-html","209","494738","0.0-6.0-106.0","24131","202301318","rare"
"321.09999990463257","false","circle","81","81,80","circle,square,diamond,triangle,hexagon","A","","","","","test","54","true","1","categorize-html","211","496588","0.0-6.0-108.0","24131","202301318","common"
"496.90000009536743","false","square,circle","81","81,80","circle,square,diamond,triangle,hexagon","B","A","","","","test","55","true","1","categorize-html","213","498615","0.0-6.0-110.0","24131","202301318","common"
"419.40000009536743","false","square","81","81,80","circle,square,diamond,triangle,hexagon","B","","","","","test","56","true","1","categorize-html","215","500556","0.0-6.0-112.0","24131","202301318","common"
"342.59999990463257","false","diamond","80","81,80","circle,square,diamond,triangle,hexagon","C","","","","","test","57","true","1","categorize-html","217","502424","0.0-6.0-114.0","24131","202301318","rare"
"483.7999999523163","false","diamond,circle","80","81,80","circle,square,diamond,triangle,hexagon","C","A","","","","test","58","true","1","categorize-html","219","504427","0.0-6.0-116.0","24131","202301318","rare"
"541.8999998569489","false","diamond","80","81,80","circle,square,diamond,triangle,hexagon","C","","","","","test","59","true","1","categorize-html","221","506506","0.0-6.0-118.0","24131","202301318","rare"
"293.2999999523163","false","square,diamond","81","81,80","circle,square,diamond,triangle,hexagon","B","C","","","","test","60","true","1","categorize-html","223","508320","0.0-6.0-120.0","24131","202301318","common"
"724.7999999523163","false","square","81","81,80","circle,square,diamond,triangle,hexagon","B","","","","","test","61","true","1","categorize-html","225","510575","0.0-6.0-122.0","24131","202301318","common"
"878.2000000476837","false","square,diamond","80","81,80","circle,square,diamond,triangle,hexagon","B","C","","","","test","62","true","1","categorize-html","227","512987","0.0-6.0-124.0","24131","202301318","rare"
"918.6000001430511","false","circle","81","81,80","circle,square,diamond,triangle,hexagon","A","","","","","test","63","true","1","categorize-html","229","515432","0.0-6.0-126.0","24131","202301318","common"
"1235.3000001907349","false","diamond,circle","81","81,80","circle,square,diamond,triangle,hexagon","C","A","","","","test","64","true","1","categorize-html","231","518204","0.0-6.0-128.0","24131","202301318","common"
"1105.2000000476837","false","diamond,square","80","81,80","circle,square,diamond,triangle,hexagon","C","B","","","","test","65","true","1","categorize-html","233","520833","0.0-6.0-130.0","24131","202301318","rare"
"576.7999999523163","false","circle","81","81,80","circle,square,diamond,triangle,hexagon","A","","","","","test","66","true","1","categorize-html","235","522932","0.0-6.0-132.0","24131","202301318","common"
"795.3999998569489","false","diamond","80","81,80","circle,square,diamond,triangle,hexagon","C","","","","","test","67","true","1","categorize-html","237","525240","0.0-6.0-134.0","24131","202301318","rare"
"490.09999990463257","false","diamond","80","81,80","circle,square,diamond,triangle,hexagon","C","","","","","test","68","true","1","categorize-html","239","527252","0.0-6.0-136.0","24131","202301318","rare"
"634.7999999523163","false","square","81","81,80","circle,square,diamond,triangle,hexagon","B","","","","","test","69","true","1","categorize-html","241","529409","0.0-6.0-138.0","24131","202301318","common"
"979","false","square,circle","81","81,80","circle,square,diamond,triangle,hexagon","B","A","","","","test","70","true","1","categorize-html","243","531927","0.0-6.0-140.0","24131","202301318","common"
"866.8999998569489","false","circle,diamond","80","81,80","circle,square,diamond,triangle,hexagon","A","C","","","","test","71","true","1","categorize-html","245","534318","0.0-6.0-142.0","24131","202301318","rare"
"596.3999998569489","false","circle,square","81","81,80","circle,square,diamond,triangle,hexagon","A","B","","","","test","72","true","1","categorize-html","247","536439","0.0-6.0-144.0","24131","202301318","common"
"430.5","false","circle","81","81,80","circle,square,diamond,triangle,hexagon","A","","","","","test","73","true","1","categorize-html","250","540101","0.0-6.0-147.0","24131","202301318","common"
"428.89999985694885","false","diamond,square","80","81,80","circle,square,diamond,triangle,hexagon","C","B","","","","test","74","true","1","categorize-html","252","542055","0.0-6.0-149.0","24131","202301318","rare"
"452.09999990463257","false","circle,square","81","81,80","circle,square,diamond,triangle,hexagon","A","B","","","","test","75","true","1","categorize-html","254","544036","0.0-6.0-151.0","24131","202301318","common"
"371.40000009536743","false","circle","81","81,80","circle,square,diamond,triangle,hexagon","A","","","","","test","76","true","1","categorize-html","256","545919","0.0-6.0-153.0","24131","202301318","common"
"664.2000000476837","false","square,diamond","80","81,80","circle,square,diamond,triangle,hexagon","B","C","","","","test","77","true","1","categorize-html","258","548114","0.0-6.0-155.0","24131","202301318","rare"
"345.80000019073486","false","square","81","81,80","circle,square,diamond,triangle,hexagon","B","","","","","test","78","true","1","categorize-html","260","549986","0.0-6.0-157.0","24131","202301318","common"
"360.90000009536743","false","circle,diamond","80","81,80","circle,square,diamond,triangle,hexagon","A","C","","","","test","79","true","1","categorize-html","262","551872","0.0-6.0-159.0","24131","202301318","rare"
"379.09999990463257","false","square","81","81,80","circle,square,diamond,triangle,hexagon","B","","","","","test","80","true","1","categorize-html","264","553785","0.0-6.0-161.0","24131","202301318","common"
"400.59999990463257","false","diamond,circle","81","81,80","circle,square,diamond,triangle,hexagon","C","A","","","","test","81","true","1","categorize-html","266","555701","0.0-6.0-163.0","24131","202301318","common"
"525.5999999046326","false","diamond","80","81,80","circle,square,diamond,triangle,hexagon","C","","","","","test","82","true","1","categorize-html","268","557749","0.0-6.0-165.0","24131","202301318","rare"
"820.4000000953674","false","diamond","80","81,80","circle,square,diamond,triangle,hexagon","C","","","","","test","83","true","1","categorize-html","270","560099","0.0-6.0-167.0","24131","202301318","rare"
"1112.2999999523163","false","square,circle","81","81,80","circle,square,diamond,triangle,hexagon","B","A","","","","test","84","true","1","categorize-html","272","562754","0.0-6.0-169.0","24131","202301318","common"
"659.1000001430511","false","circle","81","81,80","circle,square,diamond,triangle,hexagon","A","","","","","test","85","true","1","categorize-html","274","564943","0.0-6.0-171.0","24131","202301318","common"
"587.1000001430511","false","circle,square","81","81,80","circle,square,diamond,triangle,hexagon","A","B","","","","test","86","true","1","categorize-html","276","567053","0.0-6.0-173.0","24131","202301318","common"
"391.80000019073486","false","square,diamond","80","81,80","circle,square,diamond,triangle,hexagon","B","C","","","","test","87","true","1","categorize-html","278","568977","0.0-6.0-175.0","24131","202301318","rare"
"764","false","square","81","81,80","circle,square,diamond,triangle,hexagon","B","","","","","test","88","true","1","categorize-html","280","571268","0.0-6.0-177.0","24131","202301318","common"
"847.7999999523163","false","diamond,circle","80","81,80","circle,square,diamond,triangle,hexagon","C","A","","","","test","89","true","1","categorize-html","282","573636","0.0-6.0-179.0","24131","202301318","rare"
"780.5","false","square,circle","81","81,80","circle,square,diamond,triangle,hexagon","B","A","","","","test","90","true","1","categorize-html","284","575935","0.0-6.0-181.0","24131","202301318","common"
"697.5","false","circle,diamond","80","81,80","circle,square,diamond,triangle,hexagon","A","C","","","","test","91","true","1","categorize-html","286","578161","0.0-6.0-183.0","24131","202301318","rare"
"564.7000000476837","false","diamond","80","81,80","circle,square,diamond,triangle,hexagon","C","","","","","test","92","true","1","categorize-html","288","580246","0.0-6.0-185.0","24131","202301318","rare"
"470.2999999523163","false","diamond","80","81,80","circle,square,diamond,triangle,hexagon","C","","","","","test","93","true","1","categorize-html","290","582238","0.0-6.0-187.0","24131","202301318","rare"
"502.7999999523163","false","diamond,square","80","81,80","circle,square,diamond,triangle,hexagon","C","B","","","","test","94","true","1","categorize-html","292","584274","0.0-6.0-189.0","24131","202301318","rare"
"992.2000000476837","false","square","81","81,80","circle,square,diamond,triangle,hexagon","B","","","","","test","95","true","1","categorize-html","294","586781","0.0-6.0-191.0","24131","202301318","common"
"645.2999999523163","false","circle","81","81,80","circle,square,diamond,triangle,hexagon","A","","","","","test","96","true","1","categorize-html","296","588954","0.0-6.0-193.0","24131","202301318","common"
"596.0999999046326","false","square","81","81,80","circle,square,diamond,triangle,hexagon","B","","","","","test","97","true","1","categorize-html","299","592327","0.0-6.0-196.0","24131","202301318","common"
"463","false","circle,square","81","81,80","circle,square,diamond,triangle,hexagon","A","B","","","","test","98","true","1","categorize-html","301","594323","0.0-6.0-198.0","24131","202301318","common"
"417.7999999523163","false","circle","81","81,80","circle,square,diamond,triangle,hexagon","A","","","","","test","99","true","1","categorize-html","303","596258","0.0-6.0-200.0","24131","202301318","common"
"316.30000019073486","false","diamond","80","81,80","circle,square,diamond,triangle,hexagon","C","","","","","test","100","true","1","categorize-html","305","598097","0.0-6.0-202.0","24131","202301318","rare"
"509.7999999523163","false","diamond,square","81","81,80","circle,square,diamond,triangle,hexagon","C","B","","","","test","101","true","1","categorize-html","307","600130","0.0-6.0-204.0","24131","202301318","common"
"461.2999999523163","false","square,circle","81","81,80","circle,square,diamond,triangle,hexagon","B","A","","","","test","102","true","1","categorize-html","309","602113","0.0-6.0-206.0","24131","202301318","common"
"386.2000000476837","false","circle,diamond","80","81,80","circle,square,diamond,triangle,hexagon","A","C","","","","test","103","true","1","categorize-html","311","604011","0.0-6.0-208.0","24131","202301318","rare"
"404.40000009536743","false","square,diamond","80","81,80","circle,square,diamond,triangle,hexagon","B","C","","","","test","104","true","1","categorize-html","313","605951","0.0-6.0-210.0","24131","202301318","rare"
"428.80000019073486","false","diamond,circle","80","81,80","circle,square,diamond,triangle,hexagon","C","A","","","","test","105","true","1","categorize-html","315","607910","0.0-6.0-212.0","24131","202301318","rare"
"394.5","false","square","81","81,80","circle,square,diamond,triangle,hexagon","B","","","","","test","106","true","1","categorize-html","317","609841","0.0-6.0-214.0","24131","202301318","common"
"533","false","circle","81","81,80","circle,square,diamond,triangle,hexagon","A","","","","","test","107","true","1","categorize-html","319","611903","0.0-6.0-216.0","24131","202301318","common"
"571.5999999046326","false","diamond","80","81,80","circle,square,diamond,triangle,hexagon","C","","","","","test","108","true","1","categorize-html","321","614005","0.0-6.0-218.0","24131","202301318","rare"
"474","false","square,diamond","80","81,80","circle,square,diamond,triangle,hexagon","B","C","","","","test","109","true","1","categorize-html","323","616018","0.0-6.0-220.0","24131","202301318","rare"
"530.7000000476837","false","diamond,circle","80","81,80","circle,square,diamond,triangle,hexagon","C","A","","","","test","110","true","1","categorize-html","325","618071","0.0-6.0-222.0","24131","202301318","rare"
"495","false","diamond","80","81,80","circle,square,diamond,triangle,hexagon","C","","","","","test","111","true","1","categorize-html","327","620092","0.0-6.0-224.0","24131","202301318","rare"
"466.5","false","diamond","80","81,80","circle,square,diamond,triangle,hexagon","C","","","","","test","112","true","1","categorize-html","329","622086","0.0-6.0-226.0","24131","202301318","rare"
"450.69999980926514","false","diamond,square","80","81,80","circle,square,diamond,triangle,hexagon","C","B","","","","test","113","true","1","categorize-html","331","624052","0.0-6.0-228.0","24131","202301318","rare"
"503.7999999523163","false","circle,diamond","80","81,80","circle,square,diamond,triangle,hexagon","A","C","","","","test","114","true","1","categorize-html","333","626071","0.0-6.0-230.0","24131","202301318","rare"
"639.7999999523163","false","square","81","81,80","circle,square,diamond,triangle,hexagon","B","","","","","test","115","true","1","categorize-html","335","628241","0.0-6.0-232.0","24131","202301318","common"
"502.2000000476837","false","circle","81","81,80","circle,square,diamond,triangle,hexagon","A","","","","","test","116","true","1","categorize-html","337","630279","0.0-6.0-234.0","24131","202301318","common"
"573.2999999523163","false","square","80","81,80","circle,square,diamond,triangle,hexagon","B","","","","","test","117","true","1","categorize-html","339","632372","0.0-6.0-236.0","24131","202301318","rare"
"693.7999999523163","false","circle","81","81,80","circle,square,diamond,triangle,hexagon","A","","","","","test","118","true","1","categorize-html","341","634602","0.0-6.0-238.0","24131","202301318","common"
"722.0999999046326","false","square,circle","81","81,80","circle,square,diamond,triangle,hexagon","B","A","","","","test","119","true","1","categorize-html","343","636855","0.0-6.0-240.0","24131","202301318","common"
"582","false","circle,square","81","81,80","circle,square,diamond,triangle,hexagon","A","B","","","","test","120","true","1","categorize-html","345","638984","0.0-6.0-242.0","24131","202301318","common"
