"rt","correct","stimulus","key_press","keys","symptoms_shuffle","symptom1","symptom2","symptom3","key","category","phase","trial","include","block","trial_type","trial_index","time_elapsed","internal_node_id","ppt","session","abresp"
"4033.5","false","triangle,circle,hexagon","32","80,81","hexagon,triangle,diamond,circle,square","B","D","A","80","common","training","1","true","1","categorize-html","4","161101","0.0-4.0-0.0","24139","202301817","none"
"2968.199999988079","false","triangle,hexagon,circle","32","80,81","hexagon,triangle,diamond,circle,square","B","A","D","80","common","training","2","true","1","categorize-html","6","165100","0.0-4.0-2.0","24139","202301817","none"
"2855","false","hexagon,circle,triangle","32","80,81","hexagon,triangle,diamond,circle,square","A","D","B","80","common","training","3","true","1","categorize-html","8","168972","0.0-4.0-4.0","24139","202301817","none"
"3416","false","diamond,square,hexagon","32","80,81","hexagon,triangle,diamond,circle,square","C","E","A","81","rare","training","4","true","1","categorize-html","10","173417","0.0-4.0-6.0","24139","202301817","none"
"3938.2999999821186","false","triangle,circle,hexagon","32","80,81","hexagon,triangle,diamond,circle,square","B","D","A","80","common","training","5","true","1","categorize-html","12","178370","0.0-4.0-8.0","24139","202301817","none"
"4132.9000000059605","false","hexagon,triangle,circle","32","80,81","hexagon,triangle,diamond,circle,square","A","B","D","80","common","training","6","true","1","categorize-html","14","183533","0.0-4.0-10.0","24139","202301817","none"
"2577.4000000059605","false","hexagon,square,diamond","32","80,81","hexagon,triangle,diamond,circle,square","A","E","C","81","rare","training","7","true","1","categorize-html","16","187120","0.0-4.0-12.0","24139","202301817","none"
"null","false","triangle,circle,hexagon","null","80,81","hexagon,triangle,diamond,circle,square","B","D","A","80","common","training","8","true","1","categorize-html","18","193150","0.0-4.0-14.0","24139","202301817","none"
"null","false","circle,hexagon,triangle","null","80,81","hexagon,triangle,diamond,circle,square","D","A","B","80","common","training","9","true","1","categorize-html","20","199193","0.0-4.0-16.0","24139","202301817","none"
"2480.699999988079","false","circle,triangle,hexagon","32","80,81","hexagon,triangle,diamond,circle,square","D","B","A","80","common","training","10","true","1","categorize-html","22","202705","0.0-4.0-18.0","24139","202301817","none"
"2965.9000000059605","false","hexagon,triangle,circle","32","80,81","hexagon,triangle,diamond,circle,square","A","B","D","80","common","training","11","true","1","categorize-html","24","206704","0.0-4.0-20.0","24139","202301817","none"
"2824.5999999940395","false","hexagon,circle,triangle","32","80,81","hexagon,triangle,diamond,circle,square","A","D","B","80","common","training","12","true","1","categorize-html","26","210550","0.0-4.0-22.0","24139","202301817","none"
"2969.0999999940395","false","circle,hexagon,triangle","32","80,81","hexagon,triangle,diamond,circle,square","D","A","B","80","common","training","13","true","1","categorize-html","28","214535","0.0-4.0-24.0","24139","202301817","none"
"1353.9000000059605","false","circle,hexagon,triangle","32","80,81","hexagon,triangle,diamond,circle,square","D","A","B","80","common","training","14","true","1","categorize-html","30","216911","0.0-4.0-26.0","24139","202301817","none"
"2488.7000000178814","false","hexagon,diamond,square","32","80,81","hexagon,triangle,diamond,circle,square","A","C","E","81","rare","training","15","true","1","categorize-html","32","220417","0.0-4.0-28.0","24139","202301817","none"
"2476.4000000059605","false","circle,triangle,hexagon","32","80,81","hexagon,triangle,diamond,circle,square","D","B","A","80","common","training","16","true","1","categorize-html","34","223921","0.0-4.0-30.0","24139","202301817","none"
"2903","false","square,diamond,hexagon","32","80,81","hexagon,triangle,diamond,circle,square","E","C","A","81","rare","training","17","true","1","categorize-html","36","227842","0.0-4.0-32.0","24139","202301817","none"
"4463.5999999940395","false","hexagon,triangle,circle","32","80,81","hexagon,triangle,diamond,circle,square","A","B","D","80","common","training","18","true","1","categorize-html","38","233332","0.0-4.0-34.0","24139","202301817","none"
"2378.5","false","triangle,hexagon,circle","32","80,81","hexagon,triangle,diamond,circle,square","B","A","D","80","common","training","19","true","1","categorize-html","40","236741","0.0-4.0-36.0","24139","202301817","none"
"3223.300000011921","false","square,hexagon,diamond","32","80,81","hexagon,triangle,diamond,circle,square","E","A","C","81","rare","training","20","true","1","categorize-html","42","240989","0.0-4.0-38.0","24139","202301817","none"
"3532.5","false","hexagon,circle,triangle","32","80,81","hexagon,triangle,diamond,circle,square","A","D","B","80","common","training","21","true","1","categorize-html","44","245544","0.0-4.0-40.0","24139","202301817","none"
"2984.800000011921","false","diamond,hexagon,square","32","80,81","hexagon,triangle,diamond,circle,square","C","A","E","81","rare","training","22","true","1","categorize-html","46","249560","0.0-4.0-42.0","24139","202301817","none"
"2661.4000000059605","false","circle,triangle,hexagon","32","80,81","hexagon,triangle,diamond,circle,square","D","B","A","80","common","training","23","true","1","categorize-html","48","253253","0.0-4.0-44.0","24139","202301817","none"
"3790.2000000178814","false","triangle,hexagon,circle","32","80,81","hexagon,triangle,diamond,circle,square","B","A","D","80","common","training","24","true","1","categorize-html","50","258064","0.0-4.0-46.0","24139","202301817","none"
"null","false","square,hexagon,diamond","null","80,81","hexagon,triangle,diamond,circle,square","E","A","C","81","rare","training","25","true","2","categorize-html","53","275968","0.0-4.0-49.0","24139","202301817","none"
"3657.4000000059605","false","hexagon,diamond,square","32","80,81","hexagon,triangle,diamond,circle,square","A","C","E","81","rare","training","26","true","2","categorize-html","55","280653","0.0-4.0-51.0","24139","202301817","none"
"3338.199999988079","false","hexagon,square,diamond","32","80,81","hexagon,triangle,diamond,circle,square","A","E","C","81","rare","training","27","true","2","categorize-html","57","285009","0.0-4.0-53.0","24139","202301817","none"
"1784.9000000059605","false","triangle,circle,hexagon","32","80,81","hexagon,triangle,diamond,circle,square","B","D","A","80","common","training","28","true","2","categorize-html","59","287812","0.0-4.0-55.0","24139","202301817","none"
"2634.5999999940395","false","circle,hexagon,triangle","32","80,81","hexagon,triangle,diamond,circle,square","D","A","B","80","common","training","29","true","2","categorize-html","61","291473","0.0-4.0-57.0","24139","202301817","none"
"1810.5","false","hexagon,circle,triangle","32","80,81","hexagon,triangle,diamond,circle,square","A","D","B","80","common","training","30","true","2","categorize-html","63","294311","0.0-4.0-59.0","24139","202301817","none"
"2134.800000011921","false","circle,triangle,hexagon","32","80,81","hexagon,triangle,diamond,circle,square","D","B","A","80","common","training","31","true","2","categorize-html","65","297465","0.0-4.0-61.0","24139","202301817","none"
"2140.4000000059605","false","circle,triangle,hexagon","32","80,81","hexagon,triangle,diamond,circle,square","D","B","A","80","common","training","32","true","2","categorize-html","67","300634","0.0-4.0-63.0","24139","202301817","none"
"3999.0999999940395","false","diamond,hexagon,square","32","80,81","hexagon,triangle,diamond,circle,square","C","A","E","81","rare","training","33","true","2","categorize-html","69","305661","0.0-4.0-65.0","24139","202301817","none"
"2718.2999999821186","false","circle,hexagon,triangle","32","80,81","hexagon,triangle,diamond,circle,square","D","A","B","80","common","training","34","true","2","categorize-html","71","309406","0.0-4.0-67.0","24139","202301817","none"
"2516.5999999940395","false","circle,hexagon,triangle","32","80,81","hexagon,triangle,diamond,circle,square","D","A","B","80","common","training","35","true","2","categorize-html","73","312956","0.0-4.0-69.0","24139","202301817","none"
"1577.5","false","hexagon,triangle,circle","32","80,81","hexagon,triangle,diamond,circle,square","A","B","D","80","common","training","36","true","2","categorize-html","75","315567","0.0-4.0-71.0","24139","202301817","none"
"1188.5999999940395","false","hexagon,triangle,circle","32","80,81","hexagon,triangle,diamond,circle,square","A","B","D","80","common","training","37","true","2","categorize-html","77","317776","0.0-4.0-73.0","24139","202301817","none"
"1845.0999999940395","false","circle,triangle,hexagon","32","80,81","hexagon,triangle,diamond,circle,square","D","B","A","80","common","training","38","true","2","categorize-html","79","320645","0.0-4.0-75.0","24139","202301817","none"
"2512","false","triangle,circle,hexagon","32","80,81","hexagon,triangle,diamond,circle,square","B","D","A","80","common","training","39","true","2","categorize-html","81","324189","0.0-4.0-77.0","24139","202301817","none"
"null","false","diamond,square,hexagon","null","80,81","hexagon,triangle,diamond,circle,square","C","E","A","81","rare","training","40","true","2","categorize-html","83","330233","0.0-4.0-79.0","24139","202301817","none"
"1704.0999999940395","false","triangle,hexagon,circle","32","80,81","hexagon,triangle,diamond,circle,square","B","A","D","80","common","training","41","true","2","categorize-html","85","332952","0.0-4.0-81.0","24139","202301817","none"
"1943","false","hexagon,circle,triangle","32","80,81","hexagon,triangle,diamond,circle,square","A","D","B","80","common","training","42","true","2","categorize-html","87","335918","0.0-4.0-83.0","24139","202301817","none"
"1385.199999988079","false","hexagon,triangle,circle","32","80,81","hexagon,triangle,diamond,circle,square","A","B","D","80","common","training","43","true","2","categorize-html","89","338336","0.0-4.0-85.0","24139","202301817","none"
"1691.5","false","triangle,circle,hexagon","32","80,81","hexagon,triangle,diamond,circle,square","B","D","A","80","common","training","44","true","2","categorize-html","91","341052","0.0-4.0-87.0","24139","202301817","none"
"4140.300000011921","false","square,diamond,hexagon","32","80,81","hexagon,triangle,diamond,circle,square","E","C","A","81","rare","training","45","true","2","categorize-html","93","346216","0.0-4.0-89.0","24139","202301817","none"
"2338.7000000178814","false","hexagon,circle,triangle","32","80,81","hexagon,triangle,diamond,circle,square","A","D","B","80","common","training","46","true","2","categorize-html","95","349585","0.0-4.0-91.0","24139","202301817","none"
"1888","false","triangle,hexagon,circle","32","80,81","hexagon,triangle,diamond,circle,square","B","A","D","80","common","training","47","true","2","categorize-html","97","352505","0.0-4.0-93.0","24139","202301817","none"
"2066.0999999940395","false","triangle,hexagon,circle","32","80,81","hexagon,triangle,diamond,circle,square","B","A","D","80","common","training","48","true","2","categorize-html","99","355596","0.0-4.0-95.0","24139","202301817","none"
"5341.300000011921","false","hexagon,diamond","80","80,81","hexagon,triangle,diamond,circle,square","A","C","","","","test","1","true","1","categorize-html","103","390707","0.0-6.0-0.0","24139","202301817","common"
"5131.5999999940395","false","diamond","81","80,81","hexagon,triangle,diamond,circle,square","C","","","","","test","2","true","1","categorize-html","105","397375","0.0-6.0-2.0","24139","202301817","rare"
"3711.300000011921","false","hexagon,triangle","80","80,81","hexagon,triangle,diamond,circle,square","A","B","","","","test","3","true","1","categorize-html","107","402619","0.0-6.0-4.0","24139","202301817","common"
"1260.4000000059605","false","triangle,hexagon","80","80,81","hexagon,triangle,diamond,circle,square","B","A","","","","test","4","true","1","categorize-html","109","405411","0.0-6.0-6.0","24139","202301817","common"
"2479.0999999940395","false","diamond,triangle","80","80,81","hexagon,triangle,diamond,circle,square","C","B","","","","test","5","true","1","categorize-html","111","409418","0.0-6.0-8.0","24139","202301817","common"
"2653.0999999940395","false","triangle,diamond","81","80,81","hexagon,triangle,diamond,circle,square","B","C","","","","test","6","true","1","categorize-html","113","413606","0.0-6.0-10.0","24139","202301817","rare"
"1485.2000000178814","false","hexagon","80","80,81","hexagon,triangle,diamond,circle,square","A","","","","","test","7","true","1","categorize-html","115","416616","0.0-6.0-12.0","24139","202301817","common"
"1743.4000000059605","false","triangle","80","80,81","hexagon,triangle,diamond,circle,square","B","","","","","test","8","true","1","categorize-html","117","419894","0.0-6.0-14.0","24139","202301817","common"
"1318.4000000059605","false","diamond,hexagon","80","80,81","hexagon,triangle,diamond,circle,square","C","A","","","","test","9","true","1","categorize-html","119","422737","0.0-6.0-16.0","24139","202301817","common"
"2214.7000000178814","false","hexagon","80","80,81","hexagon,triangle,diamond,circle,square","A","","","","","test","10","true","1","categorize-html","121","426474","0.0-6.0-18.0","24139","202301817","common"
"1597.2999999821186","false","diamond","81","80,81","hexagon,triangle,diamond,circle,square","C","","","","","test","11","true","1","categorize-html","123","429598","0.0-6.0-20.0","24139","202301817","rare"
"1743.5999999940395","false","triangle","80","80,81","hexagon,triangle,diamond,circle,square","B","","","","","test","12","true","1","categorize-html","125","432878","0.0-6.0-22.0","24139","202301817","common"
"2130","false","hexagon","80","80,81","hexagon,triangle,diamond,circle,square","A","","","","","test","13","true","1","categorize-html","127","436535","0.0-6.0-24.0","24139","202301817","common"
"1332.5999999940395","false","diamond","81","80,81","hexagon,triangle,diamond,circle,square","C","","","","","test","14","true","1","categorize-html","129","439384","0.0-6.0-26.0","24139","202301817","rare"
"1330.300000011921","false","triangle,diamond","80","80,81","hexagon,triangle,diamond,circle,square","B","C","","","","test","15","true","1","categorize-html","131","442234","0.0-6.0-28.0","24139","202301817","common"
"2195.699999988079","false","triangle,hexagon","81","80,81","hexagon,triangle,diamond,circle,square","B","A","","","","test","16","true","1","categorize-html","133","445957","0.0-6.0-30.0","24139","202301817","rare"
"1273","false","diamond","80","80,81","hexagon,triangle,diamond,circle,square","C","","","","","test","17","true","1","categorize-html","135","448759","0.0-6.0-32.0","24139","202301817","common"
"853.1000000238419","false","hexagon,diamond","80","80,81","hexagon,triangle,diamond,circle,square","A","C","","","","test","18","true","1","categorize-html","137","451143","0.0-6.0-34.0","24139","202301817","common"
"1319.699999988079","false","triangle","81","80,81","hexagon,triangle,diamond,circle,square","B","","","","","test","19","true","1","categorize-html","139","453995","0.0-6.0-36.0","24139","202301817","rare"
"1066.2000000178814","false","triangle","80","80,81","hexagon,triangle,diamond,circle,square","B","","","","","test","20","true","1","categorize-html","141","456589","0.0-6.0-38.0","24139","202301817","common"
"1353.2999999821186","false","diamond,hexagon","80","80,81","hexagon,triangle,diamond,circle,square","C","A","","","","test","21","true","1","categorize-html","143","459475","0.0-6.0-40.0","24139","202301817","common"
"595.0999999940395","false","diamond,triangle","80","80,81","hexagon,triangle,diamond,circle,square","C","B","","","","test","22","true","1","categorize-html","145","461603","0.0-6.0-42.0","24139","202301817","common"
"615.4000000059605","false","hexagon,triangle","81","80,81","hexagon,triangle,diamond,circle,square","A","B","","","","test","23","true","1","categorize-html","147","463744","0.0-6.0-44.0","24139","202301817","rare"
"878.5","false","hexagon","80","80,81","hexagon,triangle,diamond,circle,square","A","","","","","test","24","true","1","categorize-html","149","466153","0.0-6.0-46.0","24139","202301817","common"
"1298.4000000059605","false","hexagon,diamond","80","80,81","hexagon,triangle,diamond,circle,square","A","C","","","","test","25","true","1","categorize-html","152","471962","0.0-6.0-49.0","24139","202301817","common"
"828.8000000119209","false","diamond,triangle","80","80,81","hexagon,triangle,diamond,circle,square","C","B","","","","test","26","true","1","categorize-html","154","474311","0.0-6.0-51.0","24139","202301817","common"
"1027","false","hexagon","80","80,81","hexagon,triangle,diamond,circle,square","A","","","","","test","27","true","1","categorize-html","156","476859","0.0-6.0-53.0","24139","202301817","common"
"767.0999999940395","false","hexagon","80","80,81","hexagon,triangle,diamond,circle,square","A","","","","","test","28","true","1","categorize-html","158","479151","0.0-6.0-55.0","24139","202301817","common"
"1144.699999988079","false","triangle,diamond","80","80,81","hexagon,triangle,diamond,circle,square","B","C","","","","test","29","true","1","categorize-html","160","481819","0.0-6.0-57.0","24139","202301817","common"
"639.8000000119209","false","triangle,hexagon","80","80,81","hexagon,triangle,diamond,circle,square","B","A","","","","test","30","true","1","categorize-html","162","483995","0.0-6.0-59.0","24139","202301817","common"
"652.7000000178814","false","triangle","81","80,81","hexagon,triangle,diamond,circle,square","B","","","","","test","31","true","1","categorize-html","164","486170","0.0-6.0-61.0","24139","202301817","rare"
"575","false","diamond","80","80,81","hexagon,triangle,diamond,circle,square","C","","","","","test","32","true","1","categorize-html","166","488267","0.0-6.0-63.0","24139","202301817","common"
"485.5","false","triangle","80","80,81","hexagon,triangle,diamond,circle,square","B","","","","","test","33","true","1","categorize-html","168","490283","0.0-6.0-65.0","24139","202301817","common"
"642.8000000119209","false","diamond,hexagon","81","80,81","hexagon,triangle,diamond,circle,square","C","A","","","","test","34","true","1","categorize-html","170","492456","0.0-6.0-67.0","24139","202301817","rare"
"661.3000000119209","false","diamond","80","80,81","hexagon,triangle,diamond,circle,square","C","","","","","test","35","true","1","categorize-html","172","494642","0.0-6.0-69.0","24139","202301817","common"
"1065.9000000059605","false","hexagon,triangle","81","80,81","hexagon,triangle,diamond,circle,square","A","B","","","","test","36","true","1","categorize-html","174","497239","0.0-6.0-71.0","24139","202301817","rare"
"683.6999999880791","false","diamond","81","80,81","hexagon,triangle,diamond,circle,square","C","","","","","test","37","true","1","categorize-html","176","499461","0.0-6.0-73.0","24139","202301817","rare"
"540.4000000059605","false","triangle","80","80,81","hexagon,triangle,diamond,circle,square","B","","","","","test","38","true","1","categorize-html","178","501521","0.0-6.0-75.0","24139","202301817","common"
"595","false","triangle,diamond","80","80,81","hexagon,triangle,diamond,circle,square","B","C","","","","test","39","true","1","categorize-html","180","503634","0.0-6.0-77.0","24139","202301817","common"
"1115.5","false","diamond","80","80,81","hexagon,triangle,diamond,circle,square","C","","","","","test","40","true","1","categorize-html","182","506273","0.0-6.0-79.0","24139","202301817","common"
"700.2000000178814","false","diamond,hexagon","81","80,81","hexagon,triangle,diamond,circle,square","C","A","","","","test","41","true","1","categorize-html","184","508508","0.0-6.0-81.0","24139","202301817","rare"
"539","false","hexagon","80","80,81","hexagon,triangle,diamond,circle,square","A","","","","","test","42","true","1","categorize-html","186","510573","0.0-6.0-83.0","24139","202301817","common"
"531","false","hexagon,diamond","80","80,81","hexagon,triangle,diamond,circle,square","A","C","","","","test","43","true","1","categorize-html","188","512626","0.0-6.0-85.0","24139","202301817","common"
"647.0999999940395","false","hexagon","80","80,81","hexagon,triangle,diamond,circle,square","A","","","","","test","44","true","1","categorize-html","190","514801","0.0-6.0-87.0","24139","202301817","common"
"1128.5","false","triangle","80","80,81","hexagon,triangle,diamond,circle,square","B","","","","","test","45","true","1","categorize-html","192","517457","0.0-6.0-89.0","24139","202301817","common"
"713.3000000119209","false","hexagon,triangle","81","80,81","hexagon,triangle,diamond,circle,square","A","B","","","","test","46","true","1","categorize-html","194","519706","0.0-6.0-91.0","24139","202301817","rare"
"805.3000000119209","false","diamond,triangle","80","80,81","hexagon,triangle,diamond,circle,square","C","B","","","","test","47","true","1","categorize-html","196","522039","0.0-6.0-93.0","24139","202301817","common"
"698.6999999880791","false","triangle,hexagon","80","80,81","hexagon,triangle,diamond,circle,square","B","A","","","","test","48","true","1","categorize-html","198","524267","0.0-6.0-95.0","24139","202301817","common"
"893.5999999940395","false","hexagon","80","80,81","hexagon,triangle,diamond,circle,square","A","","","","","test","49","true","1","categorize-html","201","544247","0.0-6.0-98.0","24139","202301817","common"
"441.09999999403954","false","triangle","80","80,81","hexagon,triangle,diamond,circle,square","B","","","","","test","50","true","1","categorize-html","203","546218","0.0-6.0-100.0","24139","202301817","common"
"346.09999999403954","false","diamond","81","80,81","hexagon,triangle,diamond,circle,square","C","","","","","test","51","true","1","categorize-html","205","548097","0.0-6.0-102.0","24139","202301817","rare"
"462.5","false","hexagon","80","80,81","hexagon,triangle,diamond,circle,square","A","","","","","test","52","true","1","categorize-html","207","550083","0.0-6.0-104.0","24139","202301817","common"
"258.89999997615814","false","diamond","80","80,81","hexagon,triangle,diamond,circle,square","C","","","","","test","53","true","1","categorize-html","209","551863","0.0-6.0-106.0","24139","202301817","common"
"435.10000002384186","false","diamond,hexagon","80","80,81","hexagon,triangle,diamond,circle,square","C","A","","","","test","54","true","1","categorize-html","211","553817","0.0-6.0-108.0","24139","202301817","common"
"1257.0999999940395","false","diamond,triangle","80","80,81","hexagon,triangle,diamond,circle,square","C","B","","","","test","55","true","1","categorize-html","213","556612","0.0-6.0-110.0","24139","202301817","common"
"225.59999999403954","false","triangle,hexagon","81","80,81","hexagon,triangle,diamond,circle,square","B","A","","","","test","56","true","1","categorize-html","215","558350","0.0-6.0-112.0","24139","202301817","rare"
"383.59999999403954","false","hexagon,diamond","80","80,81","hexagon,triangle,diamond,circle,square","A","C","","","","test","57","true","1","categorize-html","217","560259","0.0-6.0-114.0","24139","202301817","common"
"310","false","hexagon,triangle","80","80,81","hexagon,triangle,diamond,circle,square","A","B","","","","test","58","true","1","categorize-html","219","562088","0.0-6.0-116.0","24139","202301817","common"
"415.90000000596046","false","triangle,diamond","81","80,81","hexagon,triangle,diamond,circle,square","B","C","","","","test","59","true","1","categorize-html","221","564030","0.0-6.0-118.0","24139","202301817","rare"
"377.59999999403954","false","triangle","80","80,81","hexagon,triangle,diamond,circle,square","B","","","","","test","60","true","1","categorize-html","223","565938","0.0-6.0-120.0","24139","202301817","common"
"284","false","diamond","80","80,81","hexagon,triangle,diamond,circle,square","C","","","","","test","61","true","1","categorize-html","225","567754","0.0-6.0-122.0","24139","202301817","common"
"474","false","diamond,triangle","80","80,81","hexagon,triangle,diamond,circle,square","C","B","","","","test","62","true","1","categorize-html","227","569757","0.0-6.0-124.0","24139","202301817","common"
"580","false","triangle,hexagon","80","80,81","hexagon,triangle,diamond,circle,square","B","A","","","","test","63","true","1","categorize-html","229","571864","0.0-6.0-126.0","24139","202301817","common"
"850","false","triangle","80","80,81","hexagon,triangle,diamond,circle,square","B","","","","","test","64","true","1","categorize-html","231","574239","0.0-6.0-128.0","24139","202301817","common"
"486.7999999821186","false","hexagon","80","80,81","hexagon,triangle,diamond,circle,square","A","","","","","test","65","true","1","categorize-html","233","576260","0.0-6.0-130.0","24139","202301817","common"
"784.6999999880791","false","triangle,diamond","80","80,81","hexagon,triangle,diamond,circle,square","B","C","","","","test","66","true","1","categorize-html","235","578577","0.0-6.0-132.0","24139","202301817","common"
"410.80000001192093","false","diamond,hexagon","81","80,81","hexagon,triangle,diamond,circle,square","C","A","","","","test","67","true","1","categorize-html","237","580505","0.0-6.0-134.0","24139","202301817","rare"
"1917.7000000178814","false","diamond","81","80,81","hexagon,triangle,diamond,circle,square","C","","","","","test","68","true","1","categorize-html","239","583946","0.0-6.0-136.0","24139","202301817","rare"
"755","false","hexagon,triangle","81","80,81","hexagon,triangle,diamond,circle,square","A","B","","","","test","69","true","1","categorize-html","241","586228","0.0-6.0-138.0","24139","202301817","rare"
"318.2999999821186","false","triangle","80","80,81","hexagon,triangle,diamond,circle,square","B","","","","","test","70","true","1","categorize-html","243","588077","0.0-6.0-140.0","24139","202301817","common"
"297.90000000596046","false","hexagon,diamond","80","80,81","hexagon,triangle,diamond,circle,square","A","C","","","","test","71","true","1","categorize-html","245","589901","0.0-6.0-142.0","24139","202301817","common"
"303.90000000596046","false","hexagon","80","80,81","hexagon,triangle,diamond,circle,square","A","","","","","test","72","true","1","categorize-html","247","591726","0.0-6.0-144.0","24139","202301817","common"
"682.9000000059605","false","hexagon","81","80,81","hexagon,triangle,diamond,circle,square","A","","","","","test","73","true","1","categorize-html","250","601235","0.0-6.0-147.0","24139","202301817","rare"
"560.8000000119209","false","hexagon,triangle","81","80,81","hexagon,triangle,diamond,circle,square","A","B","","","","test","74","true","1","categorize-html","252","603310","0.0-6.0-149.0","24139","202301817","rare"
"577.3000000119209","false","triangle,hexagon","80","80,81","hexagon,triangle,diamond,circle,square","B","A","","","","test","75","true","1","categorize-html","254","605410","0.0-6.0-151.0","24139","202301817","common"
"598.9000000059605","false","hexagon,diamond","80","80,81","hexagon,triangle,diamond,circle,square","A","C","","","","test","76","true","1","categorize-html","256","607537","0.0-6.0-153.0","24139","202301817","common"
"655.1000000238419","false","diamond","80","80,81","hexagon,triangle,diamond,circle,square","C","","","","","test","77","true","1","categorize-html","258","609709","0.0-6.0-155.0","24139","202301817","common"
"436.80000001192093","false","diamond,triangle","81","80,81","hexagon,triangle,diamond,circle,square","C","B","","","","test","78","true","1","categorize-html","260","611684","0.0-6.0-157.0","24139","202301817","rare"
"456.2999999821186","false","diamond,hexagon","81","80,81","hexagon,triangle,diamond,circle,square","C","A","","","","test","79","true","1","categorize-html","262","613668","0.0-6.0-159.0","24139","202301817","rare"
"530.7999999821186","false","triangle,diamond","80","80,81","hexagon,triangle,diamond,circle,square","B","C","","","","test","80","true","1","categorize-html","264","615719","0.0-6.0-161.0","24139","202301817","common"
"734.3000000119209","false","hexagon","81","80,81","hexagon,triangle,diamond,circle,square","A","","","","","test","81","true","1","categorize-html","266","617971","0.0-6.0-163.0","24139","202301817","rare"
"624.1000000238419","false","triangle","80","80,81","hexagon,triangle,diamond,circle,square","B","","","","","test","82","true","1","categorize-html","268","620108","0.0-6.0-165.0","24139","202301817","common"
"473.2000000178814","false","diamond","80","80,81","hexagon,triangle,diamond,circle,square","C","","","","","test","83","true","1","categorize-html","270","622113","0.0-6.0-167.0","24139","202301817","common"
"467.19999998807907","false","triangle","80","80,81","hexagon,triangle,diamond,circle,square","B","","","","","test","84","true","1","categorize-html","272","624116","0.0-6.0-169.0","24139","202301817","common"
"532.6999999880791","false","triangle,hexagon","80","80,81","hexagon,triangle,diamond,circle,square","B","A","","","","test","85","true","1","categorize-html","274","626177","0.0-6.0-171.0","24139","202301817","common"
"393.2999999821186","false","triangle,diamond","80","80,81","hexagon,triangle,diamond,circle,square","B","C","","","","test","86","true","1","categorize-html","276","628099","0.0-6.0-173.0","24139","202301817","common"
"707","false","triangle","80","80,81","hexagon,triangle,diamond,circle,square","B","","","","","test","87","true","1","categorize-html","278","630342","0.0-6.0-175.0","24139","202301817","common"
"567.0999999940395","false","diamond","81","80,81","hexagon,triangle,diamond,circle,square","C","","","","","test","88","true","1","categorize-html","280","632438","0.0-6.0-177.0","24139","202301817","rare"
"909","false","hexagon","81","80,81","hexagon,triangle,diamond,circle,square","A","","","","","test","89","true","1","categorize-html","282","634878","0.0-6.0-179.0","24139","202301817","rare"
"710.5999999940395","false","diamond","80","80,81","hexagon,triangle,diamond,circle,square","C","","","","","test","90","true","1","categorize-html","284","637107","0.0-6.0-181.0","24139","202301817","common"
"875.5","false","diamond,hexagon","81","80,81","hexagon,triangle,diamond,circle,square","C","A","","","","test","91","true","1","categorize-html","286","639512","0.0-6.0-183.0","24139","202301817","rare"
"595.4000000059605","false","hexagon,triangle","81","80,81","hexagon,triangle,diamond,circle,square","A","B","","","","test","92","true","1","categorize-html","288","641631","0.0-6.0-185.0","24139","202301817","rare"
"707.0999999940395","false","diamond,triangle","80","80,81","hexagon,triangle,diamond,circle,square","C","B","","","","test","93","true","1","categorize-html","290","643864","0.0-6.0-187.0","24139","202301817","common"
"911.2999999821186","false","triangle","80","80,81","hexagon,triangle,diamond,circle,square","B","","","","","test","94","true","1","categorize-html","292","646298","0.0-6.0-189.0","24139","202301817","common"
"474.09999999403954","false","hexagon","80","80,81","hexagon,triangle,diamond,circle,square","A","","","","","test","95","true","1","categorize-html","294","648294","0.0-6.0-191.0","24139","202301817","common"
"430.7999999821186","false","hexagon,diamond","81","80,81","hexagon,triangle,diamond,circle,square","A","C","","","","test","96","true","1","categorize-html","296","650251","0.0-6.0-193.0","24139","202301817","rare"
"890.9000000059605","false","triangle","80","80,81","hexagon,triangle,diamond,circle,square","B","","","","","test","97","true","1","categorize-html","299","734365","0.0-6.0-196.0","24139","202301817","common"
"753.5999999940395","false","diamond,hexagon","80","80,81","hexagon,triangle,diamond,circle,square","C","A","","","","test","98","true","1","categorize-html","301","736653","0.0-6.0-198.0","24139","202301817","common"
"906.5","false","diamond","80","80,81","hexagon,triangle,diamond,circle,square","C","","","","","test","99","true","1","categorize-html","303","739083","0.0-6.0-200.0","24139","202301817","common"
"553.6999999880791","false","hexagon","81","80,81","hexagon,triangle,diamond,circle,square","A","","","","","test","100","true","1","categorize-html","305","741162","0.0-6.0-202.0","24139","202301817","rare"
"510.5","false","diamond","81","80,81","hexagon,triangle,diamond,circle,square","C","","","","","test","101","true","1","categorize-html","307","743194","0.0-6.0-204.0","24139","202301817","rare"
"541.9000000059605","false","hexagon,diamond","80","80,81","hexagon,triangle,diamond,circle,square","A","C","","","","test","102","true","1","categorize-html","309","745257","0.0-6.0-206.0","24139","202301817","common"
"356.5","false","diamond,triangle","80","80,81","hexagon,triangle,diamond,circle,square","C","B","","","","test","103","true","1","categorize-html","311","747131","0.0-6.0-208.0","24139","202301817","common"
"498.2000000178814","false","hexagon","80","80,81","hexagon,triangle,diamond,circle,square","A","","","","","test","104","true","1","categorize-html","313","749164","0.0-6.0-210.0","24139","202301817","common"
"555.3999999761581","false","triangle,hexagon","81","80,81","hexagon,triangle,diamond,circle,square","B","A","","","","test","105","true","1","categorize-html","315","751240","0.0-6.0-212.0","24139","202301817","rare"
"771.7999999821186","false","triangle","80","80,81","hexagon,triangle,diamond,circle,square","B","","","","","test","106","true","1","categorize-html","317","753550","0.0-6.0-214.0","24139","202301817","common"
"413.69999998807907","false","triangle,diamond","80","80,81","hexagon,triangle,diamond,circle,square","B","C","","","","test","107","true","1","categorize-html","319","755493","0.0-6.0-216.0","24139","202301817","common"
"363.40000000596046","false","hexagon,triangle","80","80,81","hexagon,triangle,diamond,circle,square","A","B","","","","test","108","true","1","categorize-html","321","757386","0.0-6.0-218.0","24139","202301817","common"
"380.19999998807907","false","diamond","80","80,81","hexagon,triangle,diamond,circle,square","C","","","","","test","109","true","1","categorize-html","323","759292","0.0-6.0-220.0","24139","202301817","common"
"272.5","false","diamond","81","80,81","hexagon,triangle,diamond,circle,square","C","","","","","test","110","true","1","categorize-html","325","761091","0.0-6.0-222.0","24139","202301817","rare"
"267.40000000596046","false","hexagon","80","80,81","hexagon,triangle,diamond,circle,square","A","","","","","test","111","true","1","categorize-html","327","762891","0.0-6.0-224.0","24139","202301817","common"
"417.90000000596046","false","triangle,diamond","80","80,81","hexagon,triangle,diamond,circle,square","B","C","","","","test","112","true","1","categorize-html","329","764836","0.0-6.0-226.0","24139","202301817","common"
"637.3000000119209","false","diamond,triangle","81","80,81","hexagon,triangle,diamond,circle,square","C","B","","","","test","113","true","1","categorize-html","331","766991","0.0-6.0-228.0","24139","202301817","rare"
"420.80000001192093","false","hexagon","80","80,81","hexagon,triangle,diamond,circle,square","A","","","","","test","114","true","1","categorize-html","333","768942","0.0-6.0-230.0","24139","202301817","common"
"498.2999999821186","false","hexagon,triangle","80","80,81","hexagon,triangle,diamond,circle,square","A","B","","","","test","115","true","1","categorize-html","335","770973","0.0-6.0-232.0","24139","202301817","common"
"651","false","hexagon,diamond","80","80,81","hexagon,triangle,diamond,circle,square","A","C","","","","test","116","true","1","categorize-html","337","773143","0.0-6.0-234.0","24139","202301817","common"
"437.7999999821186","false","triangle,hexagon","81","80,81","hexagon,triangle,diamond,circle,square","B","A","","","","test","117","true","1","categorize-html","339","775113","0.0-6.0-236.0","24139","202301817","rare"
"341.80000001192093","false","diamond,hexagon","80","80,81","hexagon,triangle,diamond,circle,square","C","A","","","","test","118","true","1","categorize-html","341","776990","0.0-6.0-238.0","24139","202301817","common"
"341.2999999821186","false","triangle","80","80,81","hexagon,triangle,diamond,circle,square","B","","","","","test","119","true","1","categorize-html","343","778868","0.0-6.0-240.0","24139","202301817","common"
"465.90000000596046","false","triangle","80","80,81","hexagon,triangle,diamond,circle,square","B","","","","","test","120","true","1","categorize-html","345","780869","0.0-6.0-242.0","24139","202301817","common"
