"rt","correct","stimulus","key_press","keys","symptoms_shuffle","symptom1","symptom2","symptom3","key","category","phase","trial","include","block","trial_type","trial_index","time_elapsed","internal_node_id","ppt","session","abresp"
"null","false","circle,triangle,hexagon","null","80,81","triangle,circle,diamond,hexagon,square","B","A","D","80","common","training","1","true","1","categorize-html","4","188140","0.0-4.0-0.0","25337","202301316","none"
"null","false","triangle,hexagon,circle","null","80,81","triangle,circle,diamond,hexagon,square","A","D","B","80","common","training","2","true","1","categorize-html","6","194174","0.0-4.0-2.0","25337","202301316","none"
"2245.8999999910593","false","triangle,circle,hexagon","32","80,81","triangle,circle,diamond,hexagon,square","A","B","D","80","common","training","3","true","1","categorize-html","8","197454","0.0-4.0-4.0","25337","202301316","none"
"3092.6000000089407","false","circle,hexagon,triangle","32","80,81","triangle,circle,diamond,hexagon,square","B","D","A","80","common","training","4","true","1","categorize-html","10","201563","0.0-4.0-6.0","25337","202301316","none"
"3504.2999999970198","false","circle,hexagon,triangle","32","80,81","triangle,circle,diamond,hexagon,square","B","D","A","80","common","training","5","true","1","categorize-html","12","206087","0.0-4.0-8.0","25337","202301316","none"
"4669.0999999940395","false","triangle,circle,hexagon","32","80,81","triangle,circle,diamond,hexagon,square","A","B","D","80","common","training","6","true","1","categorize-html","14","211774","0.0-4.0-10.0","25337","202301316","none"
"1919.4000000059605","false","circle,triangle,hexagon","32","80,81","triangle,circle,diamond,hexagon,square","B","A","D","80","common","training","7","true","1","categorize-html","16","214724","0.0-4.0-12.0","25337","202301316","none"
"2362.3999999910593","false","triangle,hexagon,circle","32","80,81","triangle,circle,diamond,hexagon,square","A","D","B","80","common","training","8","true","1","categorize-html","18","218107","0.0-4.0-14.0","25337","202301316","none"
"2695","false","circle,hexagon,triangle","32","80,81","triangle,circle,diamond,hexagon,square","B","D","A","80","common","training","9","true","1","categorize-html","20","221837","0.0-4.0-16.0","25337","202301316","none"
"3066.2000000029802","false","hexagon,triangle,circle","32","80,81","triangle,circle,diamond,hexagon,square","D","A","B","80","common","training","10","true","1","categorize-html","22","225929","0.0-4.0-18.0","25337","202301316","none"
"4516.70000000298","false","diamond,square,triangle","32","80,81","triangle,circle,diamond,hexagon,square","C","E","A","81","rare","training","11","true","1","categorize-html","24","231473","0.0-4.0-20.0","25337","202301316","none"
"3321.3999999910593","false","hexagon,circle,triangle","32","80,81","triangle,circle,diamond,hexagon,square","D","B","A","80","common","training","12","true","1","categorize-html","26","235831","0.0-4.0-22.0","25337","202301316","none"
"1858.7999999970198","false","hexagon,triangle,circle","32","80,81","triangle,circle,diamond,hexagon,square","D","A","B","80","common","training","13","true","1","categorize-html","28","238718","0.0-4.0-24.0","25337","202301316","none"
"427.5","false","diamond,triangle,square","32","80,81","triangle,circle,diamond,hexagon,square","C","A","E","81","rare","training","14","true","1","categorize-html","30","240168","0.0-4.0-26.0","25337","202301316","none"
"2580.5999999940395","false","triangle,diamond,square","32","80,81","triangle,circle,diamond,hexagon,square","A","C","E","81","rare","training","15","true","1","categorize-html","32","243768","0.0-4.0-28.0","25337","202301316","none"
"2549","false","square,diamond,triangle","32","80,81","triangle,circle,diamond,hexagon,square","E","C","A","81","rare","training","16","true","1","categorize-html","34","247337","0.0-4.0-30.0","25337","202301316","none"
"2135.7000000029802","false","circle,triangle,hexagon","32","80,81","triangle,circle,diamond,hexagon,square","B","A","D","80","common","training","17","true","1","categorize-html","36","250510","0.0-4.0-32.0","25337","202301316","none"
"2067.9000000059605","false","triangle,hexagon,circle","32","80,81","triangle,circle,diamond,hexagon,square","A","D","B","80","common","training","18","true","1","categorize-html","38","253607","0.0-4.0-34.0","25337","202301316","none"
"1130.9000000059605","false","hexagon,circle,triangle","32","80,81","triangle,circle,diamond,hexagon,square","D","B","A","80","common","training","19","true","1","categorize-html","40","255759","0.0-4.0-36.0","25337","202301316","none"
"920.0999999940395","false","triangle,circle,hexagon","32","80,81","triangle,circle,diamond,hexagon,square","A","B","D","80","common","training","20","true","1","categorize-html","42","257701","0.0-4.0-38.0","25337","202301316","none"
"1241.6000000089407","false","triangle,square,diamond","32","80,81","triangle,circle,diamond,hexagon,square","A","E","C","81","rare","training","21","true","1","categorize-html","44","259962","0.0-4.0-40.0","25337","202301316","none"
"1271.5999999940395","false","hexagon,circle,triangle","32","80,81","triangle,circle,diamond,hexagon,square","D","B","A","80","common","training","22","true","1","categorize-html","46","262263","0.0-4.0-42.0","25337","202301316","none"
"2884.199999988079","false","square,triangle,diamond","32","80,81","triangle,circle,diamond,hexagon,square","E","A","C","81","rare","training","23","true","1","categorize-html","48","266179","0.0-4.0-44.0","25337","202301316","none"
"1221.5","false","hexagon,triangle,circle","32","80,81","triangle,circle,diamond,hexagon,square","D","A","B","80","common","training","24","true","1","categorize-html","50","268438","0.0-4.0-46.0","25337","202301316","none"
"8672.5","false","diamond,triangle","81","80,81","triangle,circle,diamond,hexagon,square","C","A","","","","test","1","true","1","categorize-html","54","309261","0.0-6.0-0.0","25337","202301316","rare"
"2242.7000000029802","false","diamond,circle","80","80,81","triangle,circle,diamond,hexagon,square","C","B","","","","test","2","true","1","categorize-html","56","313019","0.0-6.0-2.0","25337","202301316","common"
"1934.2000000029802","false","circle,triangle","80","80,81","triangle,circle,diamond,hexagon,square","B","A","","","","test","3","true","1","categorize-html","58","316491","0.0-6.0-4.0","25337","202301316","common"
"1898.2999999970198","false","circle","80","80,81","triangle,circle,diamond,hexagon,square","B","","","","","test","4","true","1","categorize-html","60","319924","0.0-6.0-6.0","25337","202301316","common"
"1448.2999999970198","false","triangle,circle","80","80,81","triangle,circle,diamond,hexagon,square","A","B","","","","test","5","true","1","categorize-html","62","322903","0.0-6.0-8.0","25337","202301316","common"
"2901.7999999970198","false","triangle,diamond","81","80,81","triangle,circle,diamond,hexagon,square","A","C","","","","test","6","true","1","categorize-html","64","327333","0.0-6.0-10.0","25337","202301316","rare"
"1314.2000000029802","false","triangle","80","80,81","triangle,circle,diamond,hexagon,square","A","","","","","test","7","true","1","categorize-html","66","330169","0.0-6.0-12.0","25337","202301316","common"
"575.7999999970198","false","circle","80","80,81","triangle,circle,diamond,hexagon,square","B","","","","","test","8","true","1","categorize-html","68","332271","0.0-6.0-14.0","25337","202301316","common"
"2407.2999999970198","false","diamond","81","80,81","triangle,circle,diamond,hexagon,square","C","","","","","test","9","true","1","categorize-html","70","336213","0.0-6.0-16.0","25337","202301316","rare"
"998.2000000029802","false","circle,diamond","80","80,81","triangle,circle,diamond,hexagon,square","B","C","","","","test","10","true","1","categorize-html","72","338741","0.0-6.0-18.0","25337","202301316","common"
"740.5","false","triangle","80","80,81","triangle,circle,diamond,hexagon,square","A","","","","","test","11","true","1","categorize-html","74","341015","0.0-6.0-20.0","25337","202301316","common"
"1303.0999999940395","false","diamond","81","80,81","triangle,circle,diamond,hexagon,square","C","","","","","test","12","true","1","categorize-html","76","343848","0.0-6.0-22.0","25337","202301316","rare"
"1169.1000000089407","false","circle","80","80,81","triangle,circle,diamond,hexagon,square","B","","","","","test","13","true","1","categorize-html","78","346548","0.0-6.0-24.0","25337","202301316","common"
"1144.7000000029802","false","diamond","81","80,81","triangle,circle,diamond,hexagon,square","C","","","","","test","14","true","1","categorize-html","80","349229","0.0-6.0-26.0","25337","202301316","rare"
"666.5","false","triangle,circle","80","80,81","triangle,circle,diamond,hexagon,square","A","B","","","","test","15","true","1","categorize-html","82","351417","0.0-6.0-28.0","25337","202301316","common"
"693.0999999940395","false","diamond","81","80,81","triangle,circle,diamond,hexagon,square","C","","","","","test","16","true","1","categorize-html","84","353639","0.0-6.0-30.0","25337","202301316","rare"
"655.1999999880791","false","circle","80","80,81","triangle,circle,diamond,hexagon,square","B","","","","","test","17","true","1","categorize-html","86","355819","0.0-6.0-32.0","25337","202301316","common"
"1250.0999999940395","false","circle,diamond","81","80,81","triangle,circle,diamond,hexagon,square","B","C","","","","test","18","true","1","categorize-html","88","358590","0.0-6.0-34.0","25337","202301316","rare"
"1152.9000000059605","false","triangle,diamond","81","80,81","triangle,circle,diamond,hexagon,square","A","C","","","","test","19","true","1","categorize-html","90","361270","0.0-6.0-36.0","25337","202301316","rare"
"706.0999999940395","false","triangle","80","80,81","triangle,circle,diamond,hexagon,square","A","","","","","test","20","true","1","categorize-html","92","363510","0.0-6.0-38.0","25337","202301316","common"
"491.19999998807907","false","circle,triangle","80","80,81","triangle,circle,diamond,hexagon,square","B","A","","","","test","21","true","1","categorize-html","94","365520","0.0-6.0-40.0","25337","202301316","common"
"2019.1000000089407","false","diamond,circle","81","80,81","triangle,circle,diamond,hexagon,square","C","B","","","","test","22","true","1","categorize-html","96","369070","0.0-6.0-42.0","25337","202301316","rare"
"1406.8999999910593","false","triangle","80","80,81","triangle,circle,diamond,hexagon,square","A","","","","","test","23","true","1","categorize-html","98","372003","0.0-6.0-44.0","25337","202301316","common"
"1599.0999999940395","false","diamond,triangle","81","80,81","triangle,circle,diamond,hexagon,square","C","A","","","","test","24","true","1","categorize-html","100","375131","0.0-6.0-46.0","25337","202301316","rare"
"2189.8999999910593","false","triangle","80","80,81","triangle,circle,diamond,hexagon,square","A","","","","","test","25","true","1","categorize-html","103","419279","0.0-6.0-49.0","25337","202301316","common"
"683.5999999940395","false","triangle,diamond","81","80,81","triangle,circle,diamond,hexagon,square","A","C","","","","test","26","true","1","categorize-html","105","421482","0.0-6.0-51.0","25337","202301316","rare"
"980.9000000059605","false","triangle","80","80,81","triangle,circle,diamond,hexagon,square","A","","","","","test","27","true","1","categorize-html","107","423991","0.0-6.0-53.0","25337","202301316","common"
"616.6999999880791","false","diamond","81","80,81","triangle,circle,diamond,hexagon,square","C","","","","","test","28","true","1","categorize-html","109","426137","0.0-6.0-55.0","25337","202301316","rare"
"954.7999999970198","false","diamond,triangle","81","80,81","triangle,circle,diamond,hexagon,square","C","A","","","","test","29","true","1","categorize-html","111","428623","0.0-6.0-57.0","25337","202301316","rare"
"1305.2000000029802","false","diamond","81","80,81","triangle,circle,diamond,hexagon,square","C","","","","","test","30","true","1","categorize-html","113","431444","0.0-6.0-59.0","25337","202301316","rare"
"2101.7000000029802","false","circle,triangle","80","80,81","triangle,circle,diamond,hexagon,square","B","A","","","","test","31","true","1","categorize-html","115","435072","0.0-6.0-61.0","25337","202301316","common"
"1117.0999999940395","false","diamond,circle","81","80,81","triangle,circle,diamond,hexagon,square","C","B","","","","test","32","true","1","categorize-html","117","437723","0.0-6.0-63.0","25337","202301316","rare"
"1015.9000000059605","false","circle,diamond","81","80,81","triangle,circle,diamond,hexagon,square","B","C","","","","test","33","true","1","categorize-html","119","440264","0.0-6.0-65.0","25337","202301316","rare"
"721.2999999970198","false","circle","80","80,81","triangle,circle,diamond,hexagon,square","B","","","","","test","34","true","1","categorize-html","121","442511","0.0-6.0-67.0","25337","202301316","common"
"573.7999999970198","false","circle","80","80,81","triangle,circle,diamond,hexagon,square","B","","","","","test","35","true","1","categorize-html","123","444607","0.0-6.0-69.0","25337","202301316","common"
"1229.5999999940395","false","triangle,circle","80","80,81","triangle,circle,diamond,hexagon,square","A","B","","","","test","36","true","1","categorize-html","125","447364","0.0-6.0-71.0","25337","202301316","common"
"744.5999999940395","false","triangle,diamond","81","80,81","triangle,circle,diamond,hexagon,square","A","C","","","","test","37","true","1","categorize-html","127","449630","0.0-6.0-73.0","25337","202301316","rare"
"937.5999999940395","false","circle","80","80,81","triangle,circle,diamond,hexagon,square","B","","","","","test","38","true","1","categorize-html","129","452087","0.0-6.0-75.0","25337","202301316","common"
"858.1000000089407","false","diamond,circle","81","80,81","triangle,circle,diamond,hexagon,square","C","B","","","","test","39","true","1","categorize-html","131","454462","0.0-6.0-77.0","25337","202301316","rare"
"724.6999999880791","false","triangle","80","80,81","triangle,circle,diamond,hexagon,square","A","","","","","test","40","true","1","categorize-html","133","456722","0.0-6.0-79.0","25337","202301316","common"
"630.2000000029802","false","diamond","81","80,81","triangle,circle,diamond,hexagon,square","C","","","","","test","41","true","1","categorize-html","135","458884","0.0-6.0-81.0","25337","202301316","rare"
"734.6000000089407","false","circle,diamond","81","80,81","triangle,circle,diamond,hexagon,square","B","C","","","","test","42","true","1","categorize-html","137","461147","0.0-6.0-83.0","25337","202301316","rare"
"1194.7000000029802","false","diamond","81","80,81","triangle,circle,diamond,hexagon,square","C","","","","","test","43","true","1","categorize-html","139","463870","0.0-6.0-85.0","25337","202301316","rare"
"761.2999999970198","false","circle,triangle","80","80,81","triangle,circle,diamond,hexagon,square","B","A","","","","test","44","true","1","categorize-html","141","466161","0.0-6.0-87.0","25337","202301316","common"
"1273.7999999970198","false","triangle","80","80,81","triangle,circle,diamond,hexagon,square","A","","","","","test","45","true","1","categorize-html","143","468957","0.0-6.0-89.0","25337","202301316","common"
"2209.9000000059605","false","diamond,triangle","81","80,81","triangle,circle,diamond,hexagon,square","C","A","","","","test","46","true","1","categorize-html","145","472690","0.0-6.0-91.0","25337","202301316","rare"
"1124.9000000059605","false","circle","80","80,81","triangle,circle,diamond,hexagon,square","B","","","","","test","47","true","1","categorize-html","147","475355","0.0-6.0-93.0","25337","202301316","common"
"940.5999999940395","false","triangle,circle","80","80,81","triangle,circle,diamond,hexagon,square","A","B","","","","test","48","true","1","categorize-html","149","477823","0.0-6.0-95.0","25337","202301316","common"
"1032.5999999940395","false","circle,triangle","80","80,81","triangle,circle,diamond,hexagon,square","B","A","","","","test","49","true","1","categorize-html","152","481932","0.0-6.0-98.0","25337","202301316","common"
"1249.7000000029802","false","circle","80","80,81","triangle,circle,diamond,hexagon,square","B","","","","","test","50","true","1","categorize-html","154","484704","0.0-6.0-100.0","25337","202301316","common"
"917.3999999910593","false","circle,diamond","81","80,81","triangle,circle,diamond,hexagon,square","B","C","","","","test","51","true","1","categorize-html","156","487157","0.0-6.0-102.0","25337","202301316","rare"
"647.4000000059605","false","triangle","80","80,81","triangle,circle,diamond,hexagon,square","A","","","","","test","52","true","1","categorize-html","158","489343","0.0-6.0-104.0","25337","202301316","common"
"682.5","false","circle","80","80,81","triangle,circle,diamond,hexagon,square","B","","","","","test","53","true","1","categorize-html","160","491549","0.0-6.0-106.0","25337","202301316","common"
"718.6999999880791","false","diamond","81","80,81","triangle,circle,diamond,hexagon,square","C","","","","","test","54","true","1","categorize-html","162","493792","0.0-6.0-108.0","25337","202301316","rare"
"780","false","diamond,circle","81","80,81","triangle,circle,diamond,hexagon,square","C","B","","","","test","55","true","1","categorize-html","164","496102","0.0-6.0-110.0","25337","202301316","rare"
"682.5","false","triangle,circle","80","80,81","triangle,circle,diamond,hexagon,square","A","B","","","","test","56","true","1","categorize-html","166","498310","0.0-6.0-112.0","25337","202301316","common"
"2792.699999988079","false","triangle,diamond","81","80,81","triangle,circle,diamond,hexagon,square","A","C","","","","test","57","true","1","categorize-html","168","502627","0.0-6.0-114.0","25337","202301316","rare"
"1178.7999999970198","false","triangle","80","80,81","triangle,circle,diamond,hexagon,square","A","","","","","test","58","true","1","categorize-html","170","505330","0.0-6.0-116.0","25337","202301316","common"
"656.3999999910593","false","diamond,triangle","81","80,81","triangle,circle,diamond,hexagon,square","C","A","","","","test","59","true","1","categorize-html","172","507533","0.0-6.0-118.0","25337","202301316","rare"
"922.9000000059605","false","diamond","81","80,81","triangle,circle,diamond,hexagon,square","C","","","","","test","60","true","1","categorize-html","174","509978","0.0-6.0-120.0","25337","202301316","rare"
"656","false","circle,triangle","80","80,81","triangle,circle,diamond,hexagon,square","B","A","","","","test","61","true","1","categorize-html","176","512159","0.0-6.0-122.0","25337","202301316","common"
"568.8999999910593","false","diamond,triangle","81","80,81","triangle,circle,diamond,hexagon,square","C","A","","","","test","62","true","1","categorize-html","178","514259","0.0-6.0-124.0","25337","202301316","rare"
"1051.800000011921","false","diamond,circle","81","80,81","triangle,circle,diamond,hexagon,square","C","B","","","","test","63","true","1","categorize-html","180","516830","0.0-6.0-126.0","25337","202301316","rare"
"640.4000000059605","false","triangle","80","80,81","triangle,circle,diamond,hexagon,square","A","","","","","test","64","true","1","categorize-html","182","519002","0.0-6.0-128.0","25337","202301316","common"
"852.3999999910593","false","circle,diamond","81","80,81","triangle,circle,diamond,hexagon,square","B","C","","","","test","65","true","1","categorize-html","184","521384","0.0-6.0-130.0","25337","202301316","rare"
"941.7999999970198","false","triangle,diamond","81","80,81","triangle,circle,diamond,hexagon,square","A","C","","","","test","66","true","1","categorize-html","186","523845","0.0-6.0-132.0","25337","202301316","rare"
"906.2000000029802","false","diamond","81","80,81","triangle,circle,diamond,hexagon,square","C","","","","","test","67","true","1","categorize-html","188","526270","0.0-6.0-134.0","25337","202301316","rare"
"910.4000000059605","false","circle","80","80,81","triangle,circle,diamond,hexagon,square","B","","","","","test","68","true","1","categorize-html","190","528702","0.0-6.0-136.0","25337","202301316","common"
"771.3999999910593","false","triangle,circle","80","80,81","triangle,circle,diamond,hexagon,square","A","B","","","","test","69","true","1","categorize-html","192","530998","0.0-6.0-138.0","25337","202301316","common"
"376.30000001192093","false","triangle","80","80,81","triangle,circle,diamond,hexagon,square","A","","","","","test","70","true","1","categorize-html","194","532903","0.0-6.0-140.0","25337","202301316","common"
"566.1000000089407","false","diamond","81","80,81","triangle,circle,diamond,hexagon,square","C","","","","","test","71","true","1","categorize-html","196","535000","0.0-6.0-142.0","25337","202301316","rare"
"963.2999999970198","false","circle","80","80,81","triangle,circle,diamond,hexagon,square","B","","","","","test","72","true","1","categorize-html","198","537495","0.0-6.0-144.0","25337","202301316","common"
"1209","false","diamond","81","80,81","triangle,circle,diamond,hexagon,square","C","","","","","test","73","true","1","categorize-html","201","541609","0.0-6.0-147.0","25337","202301316","rare"
"445.59999999403954","false","circle,diamond","80","80,81","triangle,circle,diamond,hexagon,square","B","C","","","","test","74","true","1","categorize-html","203","543588","0.0-6.0-149.0","25337","202301316","common"
"740.4000000059605","false","triangle","80","80,81","triangle,circle,diamond,hexagon,square","A","","","","","test","75","true","1","categorize-html","205","545852","0.0-6.0-151.0","25337","202301316","common"
"445.8999999910593","false","triangle","80","80,81","triangle,circle,diamond,hexagon,square","A","","","","","test","76","true","1","categorize-html","207","547821","0.0-6.0-153.0","25337","202301316","common"
"701.2000000029802","false","diamond,circle","81","80,81","triangle,circle,diamond,hexagon,square","C","B","","","","test","77","true","1","categorize-html","209","550052","0.0-6.0-155.0","25337","202301316","rare"
"582.1999999880791","false","triangle,circle","80","80,81","triangle,circle,diamond,hexagon,square","A","B","","","","test","78","true","1","categorize-html","211","552162","0.0-6.0-157.0","25337","202301316","common"
"678.8000000119209","false","circle","80","80,81","triangle,circle,diamond,hexagon,square","B","","","","","test","79","true","1","categorize-html","213","554360","0.0-6.0-159.0","25337","202301316","common"
"599.0999999940395","false","triangle,diamond","81","80,81","triangle,circle,diamond,hexagon,square","A","C","","","","test","80","true","1","categorize-html","215","556494","0.0-6.0-161.0","25337","202301316","rare"
"631.5999999940395","false","circle,triangle","80","80,81","triangle,circle,diamond,hexagon,square","B","A","","","","test","81","true","1","categorize-html","217","558659","0.0-6.0-163.0","25337","202301316","common"
"1219","false","diamond,triangle","81","80,81","triangle,circle,diamond,hexagon,square","C","A","","","","test","82","true","1","categorize-html","219","561399","0.0-6.0-165.0","25337","202301316","rare"
"625.7000000029802","false","circle","80","80,81","triangle,circle,diamond,hexagon,square","B","","","","","test","83","true","1","categorize-html","221","563542","0.0-6.0-167.0","25337","202301316","common"
"546.2000000029802","false","diamond","81","80,81","triangle,circle,diamond,hexagon,square","C","","","","","test","84","true","1","categorize-html","223","565622","0.0-6.0-169.0","25337","202301316","rare"
"631.7999999970198","false","triangle","80","80,81","triangle,circle,diamond,hexagon,square","A","","","","","test","85","true","1","categorize-html","225","567776","0.0-6.0-171.0","25337","202301316","common"
"1342.9000000059605","false","circle","80","80,81","triangle,circle,diamond,hexagon,square","B","","","","","test","86","true","1","categorize-html","227","570640","0.0-6.0-173.0","25337","202301316","common"
"569.3999999910593","false","circle,triangle","80","80,81","triangle,circle,diamond,hexagon,square","B","A","","","","test","87","true","1","categorize-html","229","572745","0.0-6.0-175.0","25337","202301316","common"
"667.6000000089407","false","circle,diamond","81","80,81","triangle,circle,diamond,hexagon,square","B","C","","","","test","88","true","1","categorize-html","231","574941","0.0-6.0-177.0","25337","202301316","rare"
"729.7999999970198","false","triangle,diamond","81","80,81","triangle,circle,diamond,hexagon,square","A","C","","","","test","89","true","1","categorize-html","233","577203","0.0-6.0-179.0","25337","202301316","rare"
"2084","false","circle","80","80,81","triangle,circle,diamond,hexagon,square","B","","","","","test","90","true","1","categorize-html","235","580804","0.0-6.0-181.0","25337","202301316","common"
"1965.5999999940395","false","triangle,circle","80","80,81","triangle,circle,diamond,hexagon,square","A","B","","","","test","91","true","1","categorize-html","237","584300","0.0-6.0-183.0","25337","202301316","common"
"4420.0999999940395","false","diamond,triangle","81","80,81","triangle,circle,diamond,hexagon,square","C","A","","","","test","92","true","1","categorize-html","239","590248","0.0-6.0-185.0","25337","202301316","rare"
"3770.2000000029802","false","diamond,circle","81","80,81","triangle,circle,diamond,hexagon,square","C","B","","","","test","93","true","1","categorize-html","241","595542","0.0-6.0-187.0","25337","202301316","rare"
"2725.2000000029802","false","diamond","81","80,81","triangle,circle,diamond,hexagon,square","C","","","","","test","94","true","1","categorize-html","243","599803","0.0-6.0-189.0","25337","202301316","rare"
"1149.300000011921","false","triangle","80","80,81","triangle,circle,diamond,hexagon,square","A","","","","","test","95","true","1","categorize-html","245","602473","0.0-6.0-191.0","25337","202301316","common"
"1248.6000000089407","false","diamond","81","80,81","triangle,circle,diamond,hexagon,square","C","","","","","test","96","true","1","categorize-html","247","605260","0.0-6.0-193.0","25337","202301316","rare"
"1113.5","false","diamond","81","80,81","triangle,circle,diamond,hexagon,square","C","","","","","test","97","true","1","categorize-html","250","613296","0.0-6.0-196.0","25337","202301316","rare"
"600.5","false","triangle,diamond","81","80,81","triangle,circle,diamond,hexagon,square","A","C","","","","test","98","true","1","categorize-html","252","615422","0.0-6.0-198.0","25337","202301316","rare"
"502.8999999910593","false","diamond,triangle","81","80,81","triangle,circle,diamond,hexagon,square","C","A","","","","test","99","true","1","categorize-html","254","617447","0.0-6.0-200.0","25337","202301316","rare"
"674.2999999970198","false","triangle,circle","80","80,81","triangle,circle,diamond,hexagon,square","A","B","","","","test","100","true","1","categorize-html","256","619649","0.0-6.0-202.0","25337","202301316","common"
"1240.9000000059605","false","circle","80","80,81","triangle,circle,diamond,hexagon,square","B","","","","","test","101","true","1","categorize-html","258","622423","0.0-6.0-204.0","25337","202301316","common"
"1390.0999999940395","false","triangle","80","80,81","triangle,circle,diamond,hexagon,square","A","","","","","test","102","true","1","categorize-html","260","625334","0.0-6.0-206.0","25337","202301316","common"
"379.59999999403954","false","diamond,circle","80","80,81","triangle,circle,diamond,hexagon,square","C","B","","","","test","103","true","1","categorize-html","262","627254","0.0-6.0-208.0","25337","202301316","common"
"732","false","circle,diamond","81","80,81","triangle,circle,diamond,hexagon,square","B","C","","","","test","104","true","1","categorize-html","264","629501","0.0-6.0-210.0","25337","202301316","rare"
"903.1000000089407","false","triangle","80","80,81","triangle,circle,diamond,hexagon,square","A","","","","","test","105","true","1","categorize-html","266","631934","0.0-6.0-212.0","25337","202301316","common"
"980.7999999970198","false","circle,triangle","80","80,81","triangle,circle,diamond,hexagon,square","B","A","","","","test","106","true","1","categorize-html","268","634445","0.0-6.0-214.0","25337","202301316","common"
"549.5999999940395","false","circle","80","80,81","triangle,circle,diamond,hexagon,square","B","","","","","test","107","true","1","categorize-html","270","636523","0.0-6.0-216.0","25337","202301316","common"
"548.2999999970198","false","diamond","81","80,81","triangle,circle,diamond,hexagon,square","C","","","","","test","108","true","1","categorize-html","272","638610","0.0-6.0-218.0","25337","202301316","rare"
"706.5","false","diamond,triangle","81","80,81","triangle,circle,diamond,hexagon,square","C","A","","","","test","109","true","1","categorize-html","274","640839","0.0-6.0-220.0","25337","202301316","rare"
"988.0999999940395","false","triangle","80","80,81","triangle,circle,diamond,hexagon,square","A","","","","","test","110","true","1","categorize-html","276","643358","0.0-6.0-222.0","25337","202301316","common"
"577.7999999970198","false","diamond","81","80,81","triangle,circle,diamond,hexagon,square","C","","","","","test","111","true","1","categorize-html","278","645450","0.0-6.0-224.0","25337","202301316","rare"
"482","false","triangle,diamond","81","80,81","triangle,circle,diamond,hexagon,square","A","C","","","","test","112","true","1","categorize-html","280","647457","0.0-6.0-226.0","25337","202301316","rare"
"669.1999999880791","false","diamond,circle","81","80,81","triangle,circle,diamond,hexagon,square","C","B","","","","test","113","true","1","categorize-html","282","649651","0.0-6.0-228.0","25337","202301316","rare"
"537.0999999940395","false","triangle,circle","80","80,81","triangle,circle,diamond,hexagon,square","A","B","","","","test","114","true","1","categorize-html","284","651710","0.0-6.0-230.0","25337","202301316","common"
"1957.7999999970198","false","circle,triangle","80","80,81","triangle,circle,diamond,hexagon,square","B","A","","","","test","115","true","1","categorize-html","286","655197","0.0-6.0-232.0","25337","202301316","common"
"546.3999999910593","false","diamond","81","80,81","triangle,circle,diamond,hexagon,square","C","","","","","test","116","true","1","categorize-html","288","657273","0.0-6.0-234.0","25337","202301316","rare"
"1599.0999999940395","false","circle","80","80,81","triangle,circle,diamond,hexagon,square","B","","","","","test","117","true","1","categorize-html","290","660409","0.0-6.0-236.0","25337","202301316","common"
"1735.3999999910593","false","circle","80","80,81","triangle,circle,diamond,hexagon,square","B","","","","","test","118","true","1","categorize-html","292","663672","0.0-6.0-238.0","25337","202301316","common"
"789.4000000059605","false","triangle","80","80,81","triangle,circle,diamond,hexagon,square","A","","","","","test","119","true","1","categorize-html","294","666013","0.0-6.0-240.0","25337","202301316","common"
"655.2000000029802","false","circle,diamond","81","80,81","triangle,circle,diamond,hexagon,square","B","C","","","","test","120","true","1","categorize-html","296","668190","0.0-6.0-242.0","25337","202301316","rare"
