"rt","correct","stimulus","key_press","keys","symptoms_shuffle","symptom1","symptom2","symptom3","key","category","phase","trial","include","block","trial_type","trial_index","time_elapsed","internal_node_id","ppt","session","abresp"
"3732","false","square,hexagon,diamond","32","80,81","hexagon,diamond,circle,square,triangle","D","A","B","80","common","training","1","true","1","categorize-html","4","37922","0.0-4.0-0.0","24212","202302318","none"
"350","false","circle,triangle,hexagon","32","80,81","hexagon,diamond,circle,square,triangle","C","E","A","81","rare","training","2","true","1","categorize-html","6","39277","0.0-4.0-2.0","24212","202302318","none"
"2120.9999999999927","false","circle,hexagon,triangle","32","80,81","hexagon,diamond,circle,square,triangle","C","A","E","81","rare","training","3","true","1","categorize-html","8","42403","0.0-4.0-4.0","24212","202302318","none"
"1917","false","hexagon,diamond,square","32","80,81","hexagon,diamond,circle,square,triangle","A","B","D","80","common","training","4","true","1","categorize-html","10","45326","0.0-4.0-6.0","24212","202302318","none"
"1508","false","square,hexagon,diamond","32","80,81","hexagon,diamond,circle,square,triangle","D","A","B","80","common","training","5","true","1","categorize-html","12","47837","0.0-4.0-8.0","24212","202302318","none"
"1353","false","square,diamond,hexagon","32","80,81","hexagon,diamond,circle,square,triangle","D","B","A","80","common","training","6","true","1","categorize-html","14","50196","0.0-4.0-10.0","24212","202302318","none"
"1486","false","diamond,square,hexagon","32","80,81","hexagon,diamond,circle,square,triangle","B","D","A","80","common","training","7","true","1","categorize-html","16","52686","0.0-4.0-12.0","24212","202302318","none"
"1360","false","diamond,square,hexagon","32","80,81","hexagon,diamond,circle,square,triangle","B","D","A","80","common","training","8","true","1","categorize-html","18","55051","0.0-4.0-14.0","24212","202302318","none"
"1229","false","hexagon,diamond,square","32","80,81","hexagon,diamond,circle,square,triangle","A","B","D","80","common","training","9","true","1","categorize-html","20","57285","0.0-4.0-16.0","24212","202302318","none"
"279","false","triangle,circle,hexagon","32","80,81","hexagon,diamond,circle,square,triangle","E","C","A","81","rare","training","10","true","1","categorize-html","22","58569","0.0-4.0-18.0","24212","202302318","none"
"0","false","triangle,hexagon,circle","32","80,81","hexagon,diamond,circle,square,triangle","E","A","C","81","rare","training","11","true","1","categorize-html","24","59573","0.0-4.0-20.0","24212","202302318","none"
"486","false","hexagon,square,diamond","32","80,81","hexagon,diamond,circle,square,triangle","A","D","B","80","common","training","12","true","1","categorize-html","26","61064","0.0-4.0-22.0","24212","202302318","none"
"692","false","hexagon,triangle,circle","32","80,81","hexagon,diamond,circle,square,triangle","A","E","C","81","rare","training","13","true","1","categorize-html","28","62761","0.0-4.0-24.0","24212","202302318","none"
"833","false","diamond,hexagon,square","32","80,81","hexagon,diamond,circle,square,triangle","B","A","D","80","common","training","14","true","1","categorize-html","30","64598","0.0-4.0-26.0","24212","202302318","none"
"747","false","hexagon,circle,triangle","32","80,81","hexagon,diamond,circle,square,triangle","A","C","E","81","rare","training","15","true","1","categorize-html","32","66350","0.0-4.0-28.0","24212","202302318","none"
"945.0000000000146","false","square,diamond,hexagon","32","80,81","hexagon,diamond,circle,square,triangle","D","B","A","80","common","training","16","true","1","categorize-html","34","68300","0.0-4.0-30.0","24212","202302318","none"
"3863","false","diamond,square,hexagon","32","80,81","hexagon,diamond,circle,square,triangle","B","D","A","80","common","training","17","true","1","categorize-html","36","73167","0.0-4.0-32.0","24212","202302318","none"
"2203","false","square,diamond,hexagon","32","80,81","hexagon,diamond,circle,square,triangle","D","B","A","80","common","training","18","true","1","categorize-html","38","76374","0.0-4.0-34.0","24212","202302318","none"
"365","false","diamond,hexagon,square","32","80,81","hexagon,diamond,circle,square,triangle","B","A","D","80","common","training","19","true","1","categorize-html","40","77743","0.0-4.0-36.0","24212","202302318","none"
"842","false","diamond,hexagon,square","32","80,81","hexagon,diamond,circle,square,triangle","B","A","D","80","common","training","20","true","1","categorize-html","42","79590","0.0-4.0-38.0","24212","202302318","none"
"522","false","hexagon,square,diamond","32","80,81","hexagon,diamond,circle,square,triangle","A","D","B","80","common","training","21","true","1","categorize-html","44","81115","0.0-4.0-40.0","24212","202302318","none"
"1377","false","hexagon,diamond,square","32","80,81","hexagon,diamond,circle,square,triangle","A","B","D","80","common","training","22","true","1","categorize-html","46","83496","0.0-4.0-42.0","24212","202302318","none"
"733","false","hexagon,square,diamond","32","80,81","hexagon,diamond,circle,square,triangle","A","D","B","80","common","training","23","true","1","categorize-html","48","85235","0.0-4.0-44.0","24212","202302318","none"
"431","false","square,hexagon,diamond","32","80,81","hexagon,diamond,circle,square,triangle","D","A","B","80","common","training","24","true","1","categorize-html","50","86671","0.0-4.0-46.0","24212","202302318","none"
"8391","false","hexagon","80","80,81","hexagon,diamond,circle,square,triangle","A","","","","","test","1","true","1","categorize-html","54","111280","0.0-6.0-0.0","24212","202302318","common"
"7588","false","hexagon,diamond","80","80,81","hexagon,diamond,circle,square,triangle","A","B","","","","test","2","true","1","categorize-html","56","120373","0.0-6.0-2.0","24212","202302318","common"
"6671.000000000015","false","diamond","81","80,81","hexagon,diamond,circle,square,triangle","B","","","","","test","3","true","1","categorize-html","58","128550","0.0-6.0-4.0","24212","202302318","rare"
"4720.999999999985","false","hexagon,circle","81","80,81","hexagon,diamond,circle,square,triangle","A","C","","","","test","4","true","1","categorize-html","60","134776","0.0-6.0-6.0","24212","202302318","rare"
"null","false","circle,diamond","null","80,81","hexagon,diamond,circle,square,triangle","C","B","","","","test","5","true","1","categorize-html","62","146283","0.0-6.0-8.0","24212","202302318","none"
"1083","false","circle,hexagon","80","80,81","hexagon,diamond,circle,square,triangle","C","A","","","","test","6","true","1","categorize-html","64","148871","0.0-6.0-10.0","24212","202302318","common"
"435","false","circle","80","80,81","hexagon,diamond,circle,square,triangle","C","","","","","test","7","true","1","categorize-html","66","150811","0.0-6.0-12.0","24212","202302318","common"
"329","false","diamond,circle","81","80,81","hexagon,diamond,circle,square,triangle","B","C","","","","test","8","true","1","categorize-html","68","152645","0.0-6.0-14.0","24212","202302318","rare"
"293","false","hexagon","81","80,81","hexagon,diamond,circle,square,triangle","A","","","","","test","9","true","1","categorize-html","70","154442","0.0-6.0-16.0","24212","202302318","rare"
"297","false","diamond","81","80,81","hexagon,diamond,circle,square,triangle","B","","","","","test","10","true","1","categorize-html","72","156244","0.0-6.0-18.0","24212","202302318","rare"
"514","false","circle","81","80,81","hexagon,diamond,circle,square,triangle","C","","","","","test","11","true","1","categorize-html","74","158263","0.0-6.0-20.0","24212","202302318","rare"
"314","false","diamond,hexagon","80","80,81","hexagon,diamond,circle,square,triangle","B","A","","","","test","12","true","1","categorize-html","76","160081","0.0-6.0-22.0","24212","202302318","common"
"371","false","hexagon,diamond","80","80,81","hexagon,diamond,circle,square,triangle","A","B","","","","test","13","true","1","categorize-html","78","161957","0.0-6.0-24.0","24212","202302318","common"
"293","false","diamond","80","80,81","hexagon,diamond,circle,square,triangle","B","","","","","test","14","true","1","categorize-html","80","163756","0.0-6.0-26.0","24212","202302318","common"
"85.9999999999709","false","diamond","81","80,81","hexagon,diamond,circle,square,triangle","B","","","","","test","15","true","1","categorize-html","82","165346","0.0-6.0-28.0","24212","202302318","rare"
"353","false","diamond,circle","80","80,81","hexagon,diamond,circle,square,triangle","B","C","","","","test","16","true","1","categorize-html","84","167203","0.0-6.0-30.0","24212","202302318","common"
"1181","false","hexagon,circle","81","80,81","hexagon,diamond,circle,square,triangle","A","C","","","","test","17","true","1","categorize-html","86","169889","0.0-6.0-32.0","24212","202302318","rare"
"632","false","hexagon","81","80,81","hexagon,diamond,circle,square,triangle","A","","","","","test","18","true","1","categorize-html","88","172025","0.0-6.0-34.0","24212","202302318","rare"
"1074","false","circle,diamond","80","80,81","hexagon,diamond,circle,square,triangle","C","B","","","","test","19","true","1","categorize-html","90","174605","0.0-6.0-36.0","24212","202302318","common"
"708","false","diamond,hexagon","80","80,81","hexagon,diamond,circle,square,triangle","B","A","","","","test","20","true","1","categorize-html","92","176818","0.0-6.0-38.0","24212","202302318","common"
"1179","false","hexagon","81","80,81","hexagon,diamond,circle,square,triangle","A","","","","","test","21","true","1","categorize-html","94","179502","0.0-6.0-40.0","24212","202302318","rare"
"455","false","circle","80","80,81","hexagon,diamond,circle,square,triangle","C","","","","","test","22","true","1","categorize-html","96","181462","0.0-6.0-42.0","24212","202302318","common"
"215","false","circle,hexagon","81","80,81","hexagon,diamond,circle,square,triangle","C","A","","","","test","23","true","1","categorize-html","98","183182","0.0-6.0-44.0","24212","202302318","rare"
"29","false","circle","81","80,81","hexagon,diamond,circle,square,triangle","C","","","","","test","24","true","1","categorize-html","100","184717","0.0-6.0-46.0","24212","202302318","rare"
"1120","false","diamond","80","80,81","hexagon,diamond,circle,square,triangle","B","","","","","test","25","true","1","categorize-html","103","190340","0.0-6.0-49.0","24212","202302318","common"
"435","false","diamond,hexagon","81","80,81","hexagon,diamond,circle,square,triangle","B","A","","","","test","26","true","1","categorize-html","105","192280","0.0-6.0-51.0","24212","202302318","rare"
"29.000000000029104","false","diamond,circle","80","80,81","hexagon,diamond,circle,square,triangle","B","C","","","","test","27","true","1","categorize-html","107","193814","0.0-6.0-53.0","24212","202302318","common"
"362","false","circle,hexagon","80","80,81","hexagon,diamond,circle,square,triangle","C","A","","","","test","28","true","1","categorize-html","109","195681","0.0-6.0-55.0","24212","202302318","common"
"143","false","circle","80","80,81","hexagon,diamond,circle,square,triangle","C","","","","","test","29","true","1","categorize-html","111","197330","0.0-6.0-57.0","24212","202302318","common"
"54","false","circle","81","80,81","hexagon,diamond,circle,square,triangle","C","","","","","test","30","true","1","categorize-html","113","198888","0.0-6.0-59.0","24212","202302318","rare"
"32","false","circle,diamond","81","80,81","hexagon,diamond,circle,square,triangle","C","B","","","","test","31","true","1","categorize-html","115","200425","0.0-6.0-61.0","24212","202302318","rare"
"422","false","hexagon","81","80,81","hexagon,diamond,circle,square,triangle","A","","","","","test","32","true","1","categorize-html","117","202353","0.0-6.0-63.0","24212","202302318","rare"
"511","false","hexagon","81","80,81","hexagon,diamond,circle,square,triangle","A","","","","","test","33","true","1","categorize-html","119","204368","0.0-6.0-65.0","24212","202302318","rare"
"344","false","diamond","81","80,81","hexagon,diamond,circle,square,triangle","B","","","","","test","34","true","1","categorize-html","121","206217","0.0-6.0-67.0","24212","202302318","rare"
"277.0000000000291","false","hexagon,circle","81","80,81","hexagon,diamond,circle,square,triangle","A","C","","","","test","35","true","1","categorize-html","123","207999","0.0-6.0-69.0","24212","202302318","rare"
"307","false","hexagon,diamond","81","80,81","hexagon,diamond,circle,square,triangle","A","B","","","","test","36","true","1","categorize-html","125","209810","0.0-6.0-71.0","24212","202302318","rare"
"347","false","hexagon,diamond","80","80,81","hexagon,diamond,circle,square,triangle","A","B","","","","test","37","true","1","categorize-html","127","211663","0.0-6.0-73.0","24212","202302318","common"
"301","false","circle,hexagon","81","80,81","hexagon,diamond,circle,square,triangle","C","A","","","","test","38","true","1","categorize-html","129","213468","0.0-6.0-75.0","24212","202302318","rare"
"514","false","circle","80","80,81","hexagon,diamond,circle,square,triangle","C","","","","","test","39","true","1","categorize-html","131","215487","0.0-6.0-77.0","24212","202302318","common"
"624","false","diamond,circle","80","80,81","hexagon,diamond,circle,square,triangle","B","C","","","","test","40","true","1","categorize-html","133","217616","0.0-6.0-79.0","24212","202302318","common"
"491","false","circle","80","80,81","hexagon,diamond,circle,square,triangle","C","","","","","test","41","true","1","categorize-html","135","219612","0.0-6.0-81.0","24212","202302318","common"
"198.0000000000291","false","diamond","81","80,81","hexagon,diamond,circle,square,triangle","B","","","","","test","42","true","1","categorize-html","137","221315","0.0-6.0-83.0","24212","202302318","rare"
"34","false","hexagon","80","80,81","hexagon,diamond,circle,square,triangle","A","","","","","test","43","true","1","categorize-html","139","222853","0.0-6.0-85.0","24212","202302318","common"
"33","false","hexagon,circle","80","80,81","hexagon,diamond,circle,square,triangle","A","C","","","","test","44","true","1","categorize-html","141","224391","0.0-6.0-87.0","24212","202302318","common"
"611.0000000000291","false","diamond","81","80,81","hexagon,diamond,circle,square,triangle","B","","","","","test","45","true","1","categorize-html","143","226506","0.0-6.0-89.0","24212","202302318","rare"
"270","false","circle,diamond","80","80,81","hexagon,diamond,circle,square,triangle","C","B","","","","test","46","true","1","categorize-html","145","228281","0.0-6.0-91.0","24212","202302318","common"
"607","false","diamond,hexagon","80","80,81","hexagon,diamond,circle,square,triangle","B","A","","","","test","47","true","1","categorize-html","147","230393","0.0-6.0-93.0","24212","202302318","common"
"529","false","hexagon","81","80,81","hexagon,diamond,circle,square,triangle","A","","","","","test","48","true","1","categorize-html","149","232427","0.0-6.0-95.0","24212","202302318","rare"
"570","false","diamond","80","80,81","hexagon,diamond,circle,square,triangle","B","","","","","test","49","true","1","categorize-html","152","235713","0.0-6.0-98.0","24212","202302318","common"
"981","false","circle","81","80,81","hexagon,diamond,circle,square,triangle","C","","","","","test","50","true","1","categorize-html","154","238199","0.0-6.0-100.0","24212","202302318","rare"
"63","false","diamond,hexagon","81","80,81","hexagon,diamond,circle,square,triangle","B","A","","","","test","51","true","1","categorize-html","156","239766","0.0-6.0-102.0","24212","202302318","rare"
"44.000000000029104","false","hexagon,diamond","80","80,81","hexagon,diamond,circle,square,triangle","A","B","","","","test","52","true","1","categorize-html","158","241315","0.0-6.0-104.0","24212","202302318","common"
"391","false","circle","80","80,81","hexagon,diamond,circle,square,triangle","C","","","","","test","53","true","1","categorize-html","160","243212","0.0-6.0-106.0","24212","202302318","common"
"644","false","circle,diamond","80","80,81","hexagon,diamond,circle,square,triangle","C","B","","","","test","54","true","1","categorize-html","162","245360","0.0-6.0-108.0","24212","202302318","common"
"360","false","hexagon","80","80,81","hexagon,diamond,circle,square,triangle","A","","","","","test","55","true","1","categorize-html","164","247224","0.0-6.0-110.0","24212","202302318","common"
"1684","false","diamond","81","80,81","hexagon,diamond,circle,square,triangle","B","","","","","test","56","true","1","categorize-html","166","250412","0.0-6.0-112.0","24212","202302318","rare"
"188","false","hexagon,circle","81","80,81","hexagon,diamond,circle,square,triangle","A","C","","","","test","57","true","1","categorize-html","168","252106","0.0-6.0-114.0","24212","202302318","rare"
"709","false","hexagon","80","80,81","hexagon,diamond,circle,square,triangle","A","","","","","test","58","true","1","categorize-html","170","254320","0.0-6.0-116.0","24212","202302318","common"
"446.9999999999418","false","diamond,circle","81","80,81","hexagon,diamond,circle,square,triangle","B","C","","","","test","59","true","1","categorize-html","172","256272","0.0-6.0-118.0","24212","202302318","rare"
"996.9999999999709","false","circle,hexagon","81","80,81","hexagon,diamond,circle,square,triangle","C","A","","","","test","60","true","1","categorize-html","174","258774","0.0-6.0-120.0","24212","202302318","rare"
"437.0000000000291","false","circle","80","80,81","hexagon,diamond,circle,square,triangle","C","","","","","test","61","true","1","categorize-html","176","260716","0.0-6.0-122.0","24212","202302318","common"
"826","false","hexagon","80","80,81","hexagon,diamond,circle,square,triangle","A","","","","","test","62","true","1","categorize-html","178","263047","0.0-6.0-124.0","24212","202302318","common"
"455","false","diamond,hexagon","80","80,81","hexagon,diamond,circle,square,triangle","B","A","","","","test","63","true","1","categorize-html","180","265007","0.0-6.0-126.0","24212","202302318","common"
"492","false","circle,diamond","81","80,81","hexagon,diamond,circle,square,triangle","C","B","","","","test","64","true","1","categorize-html","182","267004","0.0-6.0-128.0","24212","202302318","rare"
"327","false","circle,hexagon","80","80,81","hexagon,diamond,circle,square,triangle","C","A","","","","test","65","true","1","categorize-html","184","268837","0.0-6.0-130.0","24212","202302318","common"
"229","false","hexagon","80","80,81","hexagon,diamond,circle,square,triangle","A","","","","","test","66","true","1","categorize-html","186","270570","0.0-6.0-132.0","24212","202302318","common"
"119.99999999994179","false","diamond,circle","80","80,81","hexagon,diamond,circle,square,triangle","B","C","","","","test","67","true","1","categorize-html","188","272195","0.0-6.0-134.0","24212","202302318","common"
"340.9999999999418","false","circle","81","80,81","hexagon,diamond,circle,square,triangle","C","","","","","test","68","true","1","categorize-html","190","274041","0.0-6.0-136.0","24212","202302318","rare"
"345","false","hexagon,circle","81","80,81","hexagon,diamond,circle,square,triangle","A","C","","","","test","69","true","1","categorize-html","192","275891","0.0-6.0-138.0","24212","202302318","rare"
"196","false","hexagon,diamond","81","80,81","hexagon,diamond,circle,square,triangle","A","B","","","","test","70","true","1","categorize-html","194","277591","0.0-6.0-140.0","24212","202302318","rare"
"98","false","diamond","81","80,81","hexagon,diamond,circle,square,triangle","B","","","","","test","71","true","1","categorize-html","196","279193","0.0-6.0-142.0","24212","202302318","rare"
"124","false","diamond","80","80,81","hexagon,diamond,circle,square,triangle","B","","","","","test","72","true","1","categorize-html","198","280822","0.0-6.0-144.0","24212","202302318","common"
"834","false","hexagon,circle","80","80,81","hexagon,diamond,circle,square,triangle","A","C","","","","test","73","true","1","categorize-html","201","285425","0.0-6.0-147.0","24212","202302318","common"
"1251","false","hexagon","80","80,81","hexagon,diamond,circle,square,triangle","A","","","","","test","74","true","1","categorize-html","203","288179","0.0-6.0-149.0","24212","202302318","common"
"25","false","circle,diamond","80","80,81","hexagon,diamond,circle,square,triangle","C","B","","","","test","75","true","1","categorize-html","205","289709","0.0-6.0-151.0","24212","202302318","common"
"102","false","hexagon","80","80,81","hexagon,diamond,circle,square,triangle","A","","","","","test","76","true","1","categorize-html","207","291317","0.0-6.0-153.0","24212","202302318","common"
"24","false","circle","80","80,81","hexagon,diamond,circle,square,triangle","C","","","","","test","77","true","1","categorize-html","209","292845","0.0-6.0-155.0","24212","202302318","common"
"49.99999999994179","false","circle","80","80,81","hexagon,diamond,circle,square,triangle","C","","","","","test","78","true","1","categorize-html","211","294400","0.0-6.0-157.0","24212","202302318","common"
"1277","false","diamond","80","80,81","hexagon,diamond,circle,square,triangle","B","","","","","test","79","true","1","categorize-html","213","297182","0.0-6.0-159.0","24212","202302318","common"
"1366","false","diamond,circle","80","80,81","hexagon,diamond,circle,square,triangle","B","C","","","","test","80","true","1","categorize-html","215","300052","0.0-6.0-161.0","24212","202302318","common"
"907","false","diamond,hexagon","81","80,81","hexagon,diamond,circle,square,triangle","B","A","","","","test","81","true","1","categorize-html","217","302463","0.0-6.0-163.0","24212","202302318","rare"
"1266","false","diamond","80","80,81","hexagon,diamond,circle,square,triangle","B","","","","","test","82","true","1","categorize-html","219","305234","0.0-6.0-165.0","24212","202302318","common"
"169","false","circle,hexagon","81","80,81","hexagon,diamond,circle,square,triangle","C","A","","","","test","83","true","1","categorize-html","221","306908","0.0-6.0-167.0","24212","202302318","rare"
"1295","false","hexagon,diamond","80","80,81","hexagon,diamond,circle,square,triangle","A","B","","","","test","84","true","1","categorize-html","223","309708","0.0-6.0-169.0","24212","202302318","common"
"1160","false","circle,hexagon","80","80,81","hexagon,diamond,circle,square,triangle","C","A","","","","test","85","true","1","categorize-html","225","312373","0.0-6.0-171.0","24212","202302318","common"
"9266","false","hexagon","80","80,81","hexagon,diamond,circle,square,triangle","A","","","","","test","86","true","1","categorize-html","227","323144","0.0-6.0-173.0","24212","202302318","common"
"1192.9999999999418","false","diamond,hexagon","81","80,81","hexagon,diamond,circle,square,triangle","B","A","","","","test","87","true","1","categorize-html","229","325841","0.0-6.0-175.0","24212","202302318","rare"
"612","false","hexagon","80","80,81","hexagon,diamond,circle,square,triangle","A","","","","","test","88","true","1","categorize-html","231","327957","0.0-6.0-177.0","24212","202302318","common"
"3302","false","diamond","80","80,81","hexagon,diamond,circle,square,triangle","B","","","","","test","89","true","1","categorize-html","233","332764","0.0-6.0-179.0","24212","202302318","common"
"1388","false","diamond,circle","81","80,81","hexagon,diamond,circle,square,triangle","B","C","","","","test","90","true","1","categorize-html","235","335658","0.0-6.0-181.0","24212","202302318","rare"
"3389","false","hexagon,circle","80","80,81","hexagon,diamond,circle,square,triangle","A","C","","","","test","91","true","1","categorize-html","237","340551","0.0-6.0-183.0","24212","202302318","common"
"375","false","circle,diamond","80","80,81","hexagon,diamond,circle,square,triangle","C","B","","","","test","92","true","1","categorize-html","239","342431","0.0-6.0-185.0","24212","202302318","common"
"363.0000000000582","false","circle","81","80,81","hexagon,diamond,circle,square,triangle","C","","","","","test","93","true","1","categorize-html","241","344298","0.0-6.0-187.0","24212","202302318","rare"
"456.9999999999418","false","circle","81","80,81","hexagon,diamond,circle,square,triangle","C","","","","","test","94","true","1","categorize-html","243","346260","0.0-6.0-189.0","24212","202302318","rare"
"1071","false","hexagon,diamond","81","80,81","hexagon,diamond,circle,square,triangle","A","B","","","","test","95","true","1","categorize-html","245","348836","0.0-6.0-191.0","24212","202302318","rare"
"481","false","diamond","80","80,81","hexagon,diamond,circle,square,triangle","B","","","","","test","96","true","1","categorize-html","247","350821","0.0-6.0-193.0","24212","202302318","common"
"699","false","hexagon","80","80,81","hexagon,diamond,circle,square,triangle","A","","","","","test","97","true","1","categorize-html","250","354331","0.0-6.0-196.0","24212","202302318","common"
"165.0000000000582","false","circle,diamond","80","80,81","hexagon,diamond,circle,square,triangle","C","B","","","","test","98","true","1","categorize-html","252","356000","0.0-6.0-198.0","24212","202302318","common"
"183","false","diamond,circle","80","80,81","hexagon,diamond,circle,square,triangle","B","C","","","","test","99","true","1","categorize-html","254","357689","0.0-6.0-200.0","24212","202302318","common"
"143","false","diamond","80","80,81","hexagon,diamond,circle,square,triangle","B","","","","","test","100","true","1","categorize-html","256","359336","0.0-6.0-202.0","24212","202302318","common"
"80","false","circle","81","80,81","hexagon,diamond,circle,square,triangle","C","","","","","test","101","true","1","categorize-html","258","360921","0.0-6.0-204.0","24212","202302318","rare"
"35","false","hexagon","80","80,81","hexagon,diamond,circle,square,triangle","A","","","","","test","102","true","1","categorize-html","260","362461","0.0-6.0-206.0","24212","202302318","common"
"214","false","circle,hexagon","80","80,81","hexagon,diamond,circle,square,triangle","C","A","","","","test","103","true","1","categorize-html","262","364179","0.0-6.0-208.0","24212","202302318","common"
"506","false","hexagon,diamond","80","80,81","hexagon,diamond,circle,square,triangle","A","B","","","","test","104","true","1","categorize-html","264","366190","0.0-6.0-210.0","24212","202302318","common"
"550","false","diamond,hexagon","81","80,81","hexagon,diamond,circle,square,triangle","B","A","","","","test","105","true","1","categorize-html","266","368244","0.0-6.0-212.0","24212","202302318","rare"
"440","false","circle","81","80,81","hexagon,diamond,circle,square,triangle","C","","","","","test","106","true","1","categorize-html","268","370189","0.0-6.0-214.0","24212","202302318","rare"
"452","false","hexagon,circle","80","80,81","hexagon,diamond,circle,square,triangle","A","C","","","","test","107","true","1","categorize-html","270","372147","0.0-6.0-216.0","24212","202302318","common"
"352","false","diamond","80","80,81","hexagon,diamond,circle,square,triangle","B","","","","","test","108","true","1","categorize-html","272","374004","0.0-6.0-218.0","24212","202302318","common"
"398","false","hexagon,diamond","80","80,81","hexagon,diamond,circle,square,triangle","A","B","","","","test","109","true","1","categorize-html","274","375906","0.0-6.0-220.0","24212","202302318","common"
"627","false","hexagon","81","80,81","hexagon,diamond,circle,square,triangle","A","","","","","test","110","true","1","categorize-html","276","378038","0.0-6.0-222.0","24212","202302318","rare"
"412","false","circle","81","80,81","hexagon,diamond,circle,square,triangle","C","","","","","test","111","true","1","categorize-html","278","379955","0.0-6.0-224.0","24212","202302318","rare"
"71","false","hexagon","81","80,81","hexagon,diamond,circle,square,triangle","A","","","","","test","112","true","1","categorize-html","280","381531","0.0-6.0-226.0","24212","202302318","rare"
"295","false","diamond,circle","80","80,81","hexagon,diamond,circle,square,triangle","B","C","","","","test","113","true","1","categorize-html","282","383331","0.0-6.0-228.0","24212","202302318","common"
"349","false","diamond","80","80,81","hexagon,diamond,circle,square,triangle","B","","","","","test","114","true","1","categorize-html","284","385185","0.0-6.0-230.0","24212","202302318","common"
"276","false","hexagon,circle","81","80,81","hexagon,diamond,circle,square,triangle","A","C","","","","test","115","true","1","categorize-html","286","386966","0.0-6.0-232.0","24212","202302318","rare"
"130","false","diamond","81","80,81","hexagon,diamond,circle,square,triangle","B","","","","","test","116","true","1","categorize-html","288","388600","0.0-6.0-234.0","24212","202302318","rare"
"436","false","circle,hexagon","81","80,81","hexagon,diamond,circle,square,triangle","C","A","","","","test","117","true","1","categorize-html","290","390541","0.0-6.0-236.0","24212","202302318","rare"
"301","false","circle,diamond","81","80,81","hexagon,diamond,circle,square,triangle","C","B","","","","test","118","true","1","categorize-html","292","392347","0.0-6.0-238.0","24212","202302318","rare"
"265.9999999999418","false","diamond,hexagon","81","80,81","hexagon,diamond,circle,square,triangle","B","A","","","","test","119","true","1","categorize-html","294","394118","0.0-6.0-240.0","24212","202302318","rare"
"32.00000000005821","false","circle","80","80,81","hexagon,diamond,circle,square,triangle","C","","","","","test","120","true","1","categorize-html","296","395654","0.0-6.0-242.0","24212","202302318","common"
