"rt","correct","stimulus","key_press","keys","symptoms_shuffle","symptom1","symptom2","symptom3","key","category","phase","trial","include","block","trial_type","trial_index","time_elapsed","internal_node_id","ppt","session","abresp"
"null","false","square,hexagon,diamond","null","81,80","square,triangle,hexagon,circle,diamond","A","C","E","80","rare","training","1","true","1","categorize-html","4","123773","0.0-4.0-0.0","25343","202301710","none"
"2266.5","false","triangle,square,circle","32","81,80","square,triangle,hexagon,circle,diamond","B","A","D","81","common","training","2","true","1","categorize-html","6","127052","0.0-4.0-2.0","25343","202301710","none"
"1375.8999999761581","false","square,diamond,hexagon","32","81,80","square,triangle,hexagon,circle,diamond","A","E","C","80","rare","training","3","true","1","categorize-html","8","129444","0.0-4.0-4.0","25343","202301710","none"
"1694.5","false","circle,square,triangle","32","81,80","square,triangle,hexagon,circle,diamond","D","A","B","81","common","training","4","true","1","categorize-html","10","132162","0.0-4.0-6.0","25343","202301710","none"
"2424.600000023842","false","triangle,square,circle","32","81,80","square,triangle,hexagon,circle,diamond","B","A","D","81","common","training","5","true","1","categorize-html","12","135593","0.0-4.0-8.0","25343","202301710","none"
"1978.6000000238419","false","triangle,circle,square","32","81,80","square,triangle,hexagon,circle,diamond","B","D","A","81","common","training","6","true","1","categorize-html","14","138600","0.0-4.0-10.0","25343","202301710","none"
"1871.699999988079","false","triangle,square,circle","32","81,80","square,triangle,hexagon,circle,diamond","B","A","D","81","common","training","7","true","1","categorize-html","16","141493","0.0-4.0-12.0","25343","202301710","none"
"1325.1000000238419","false","circle,square,triangle","32","81,80","square,triangle,hexagon,circle,diamond","D","A","B","81","common","training","8","true","1","categorize-html","18","143844","0.0-4.0-14.0","25343","202301710","none"
"1471.4000000357628","false","square,triangle,circle","32","81,80","square,triangle,hexagon,circle,diamond","A","B","D","81","common","training","9","true","1","categorize-html","20","146327","0.0-4.0-16.0","25343","202301710","none"
"921.5999999642372","false","square,triangle,circle","32","81,80","square,triangle,hexagon,circle,diamond","A","B","D","81","common","training","10","true","1","categorize-html","22","148270","0.0-4.0-18.0","25343","202301710","none"
"872.8000000119209","false","circle,triangle,square","32","81,80","square,triangle,hexagon,circle,diamond","D","B","A","81","common","training","11","true","1","categorize-html","24","150153","0.0-4.0-20.0","25343","202301710","none"
"640.6999999880791","false","square,circle,triangle","32","81,80","square,triangle,hexagon,circle,diamond","A","D","B","81","common","training","12","true","1","categorize-html","26","151810","0.0-4.0-22.0","25343","202301710","none"
"514.1999999880791","false","square,circle,triangle","32","81,80","square,triangle,hexagon,circle,diamond","A","D","B","81","common","training","13","true","1","categorize-html","28","153328","0.0-4.0-24.0","25343","202301710","none"
"802.6999999880791","false","square,circle,triangle","32","81,80","square,triangle,hexagon,circle,diamond","A","D","B","81","common","training","14","true","1","categorize-html","30","155145","0.0-4.0-26.0","25343","202301710","none"
"1046.2000000476837","false","square,triangle,circle","32","81,80","square,triangle,hexagon,circle,diamond","A","B","D","81","common","training","15","true","1","categorize-html","32","157216","0.0-4.0-28.0","25343","202301710","none"
"2262.5","false","hexagon,square,diamond","32","81,80","square,triangle,hexagon,circle,diamond","C","A","E","80","rare","training","16","true","1","categorize-html","34","160494","0.0-4.0-30.0","25343","202301710","none"
"1326.5","false","triangle,circle,square","32","81,80","square,triangle,hexagon,circle,diamond","B","D","A","81","common","training","17","true","1","categorize-html","36","162834","0.0-4.0-32.0","25343","202301710","none"
"1364.9000000357628","false","circle,square,triangle","32","81,80","square,triangle,hexagon,circle,diamond","D","A","B","81","common","training","18","true","1","categorize-html","38","165215","0.0-4.0-34.0","25343","202301710","none"
"946.3999999761581","false","circle,triangle,square","32","81,80","square,triangle,hexagon,circle,diamond","D","B","A","81","common","training","19","true","1","categorize-html","40","167178","0.0-4.0-36.0","25343","202301710","none"
"1258.699999988079","false","triangle,circle,square","32","81,80","square,triangle,hexagon,circle,diamond","B","D","A","81","common","training","20","true","1","categorize-html","42","169448","0.0-4.0-38.0","25343","202301710","none"
"937.4000000357628","false","circle,triangle,square","32","81,80","square,triangle,hexagon,circle,diamond","D","B","A","81","common","training","21","true","1","categorize-html","44","171400","0.0-4.0-40.0","25343","202301710","none"
"3435.2000000476837","false","diamond,hexagon,square","32","81,80","square,triangle,hexagon,circle,diamond","E","C","A","80","rare","training","22","true","1","categorize-html","46","175851","0.0-4.0-42.0","25343","202301710","none"
"2342.7999999523163","false","diamond,square,hexagon","32","81,80","square,triangle,hexagon,circle,diamond","E","A","C","80","rare","training","23","true","1","categorize-html","48","179215","0.0-4.0-44.0","25343","202301710","none"
"1331.7000000476837","false","hexagon,diamond,square","32","81,80","square,triangle,hexagon,circle,diamond","C","E","A","80","rare","training","24","true","1","categorize-html","50","181564","0.0-4.0-46.0","25343","202301710","none"
"3652.199999988079","false","hexagon,triangle","81","81,80","square,triangle,hexagon,circle,diamond","C","B","","","","test","1","true","1","categorize-html","54","280391","0.0-6.0-0.0","25343","202301710","common"
"2397.399999976158","false","triangle,hexagon","80","81,80","square,triangle,hexagon,circle,diamond","B","C","","","","test","2","true","1","categorize-html","56","284300","0.0-6.0-2.0","25343","202301710","rare"
"1970.4000000357628","false","triangle","81","81,80","square,triangle,hexagon,circle,diamond","B","","","","","test","3","true","1","categorize-html","58","287794","0.0-6.0-4.0","25343","202301710","common"
"4674.800000011921","false","hexagon,square","80","81,80","square,triangle,hexagon,circle,diamond","C","A","","","","test","4","true","1","categorize-html","60","293984","0.0-6.0-6.0","25343","202301710","rare"
"1410.699999988079","false","square,triangle","81","81,80","square,triangle,hexagon,circle,diamond","A","B","","","","test","5","true","1","categorize-html","62","296904","0.0-6.0-8.0","25343","202301710","common"
"1136.800000011921","false","square,hexagon","80","81,80","square,triangle,hexagon,circle,diamond","A","C","","","","test","6","true","1","categorize-html","64","299550","0.0-6.0-10.0","25343","202301710","rare"
"1703.2000000476837","false","hexagon","80","81,80","square,triangle,hexagon,circle,diamond","C","","","","","test","7","true","1","categorize-html","66","302767","0.0-6.0-12.0","25343","202301710","rare"
"1352.4000000357628","false","hexagon","80","81,80","square,triangle,hexagon,circle,diamond","C","","","","","test","8","true","1","categorize-html","68","305632","0.0-6.0-14.0","25343","202301710","rare"
"976","false","triangle,square","81","81,80","square,triangle,hexagon,circle,diamond","B","A","","","","test","9","true","1","categorize-html","70","308122","0.0-6.0-16.0","25343","202301710","common"
"2659.899999976158","false","square","80","81,80","square,triangle,hexagon,circle,diamond","A","","","","","test","10","true","1","categorize-html","72","312307","0.0-6.0-18.0","25343","202301710","rare"
"1415.2000000476837","false","triangle","81","81,80","square,triangle,hexagon,circle,diamond","B","","","","","test","11","true","1","categorize-html","74","315240","0.0-6.0-20.0","25343","202301710","common"
"927.6000000238419","false","square","80","81,80","square,triangle,hexagon,circle,diamond","A","","","","","test","12","true","1","categorize-html","76","317685","0.0-6.0-22.0","25343","202301710","rare"
"949.6999999880791","false","square","80","81,80","square,triangle,hexagon,circle,diamond","A","","","","","test","13","true","1","categorize-html","78","320151","0.0-6.0-24.0","25343","202301710","rare"
"858.2000000476837","false","hexagon","80","81,80","square,triangle,hexagon,circle,diamond","C","","","","","test","14","true","1","categorize-html","80","322520","0.0-6.0-26.0","25343","202301710","rare"
"685.3000000119209","false","hexagon","80","81,80","square,triangle,hexagon,circle,diamond","C","","","","","test","15","true","1","categorize-html","82","324722","0.0-6.0-28.0","25343","202301710","rare"
"468.0999999642372","false","triangle,square","81","81,80","square,triangle,hexagon,circle,diamond","B","A","","","","test","16","true","1","categorize-html","84","326709","0.0-6.0-30.0","25343","202301710","common"
"1189.5","false","triangle,hexagon","80","81,80","square,triangle,hexagon,circle,diamond","B","C","","","","test","17","true","1","categorize-html","86","329419","0.0-6.0-32.0","25343","202301710","rare"
"1152.1000000238419","false","triangle","81","81,80","square,triangle,hexagon,circle,diamond","B","","","","","test","18","true","1","categorize-html","88","332082","0.0-6.0-34.0","25343","202301710","common"
"765.3999999761581","false","square,hexagon","80","81,80","square,triangle,hexagon,circle,diamond","A","C","","","","test","19","true","1","categorize-html","90","334361","0.0-6.0-36.0","25343","202301710","rare"
"2551.699999988079","false","hexagon,triangle","80","81,80","square,triangle,hexagon,circle,diamond","C","B","","","","test","20","true","1","categorize-html","92","338433","0.0-6.0-38.0","25343","202301710","rare"
"932.3000000119209","false","triangle","81","81,80","square,triangle,hexagon,circle,diamond","B","","","","","test","21","true","1","categorize-html","94","340877","0.0-6.0-40.0","25343","202301710","common"
"885.2000000476837","false","hexagon,square","80","81,80","square,triangle,hexagon,circle,diamond","C","A","","","","test","22","true","1","categorize-html","96","343272","0.0-6.0-42.0","25343","202301710","rare"
"1373.9000000357628","false","square,triangle","81","81,80","square,triangle,hexagon,circle,diamond","A","B","","","","test","23","true","1","categorize-html","98","346163","0.0-6.0-44.0","25343","202301710","common"
"1444.1000000238419","false","square","80","81,80","square,triangle,hexagon,circle,diamond","A","","","","","test","24","true","1","categorize-html","100","349131","0.0-6.0-46.0","25343","202301710","rare"
"1502.5","false","triangle","81","81,80","square,triangle,hexagon,circle,diamond","B","","","","","test","25","true","1","categorize-html","103","354826","0.0-6.0-49.0","25343","202301710","common"
"839.7999999523163","false","triangle,square","81","81,80","square,triangle,hexagon,circle,diamond","B","A","","","","test","26","true","1","categorize-html","105","357186","0.0-6.0-51.0","25343","202301710","common"
"857.6999999880791","false","square,hexagon","80","81,80","square,triangle,hexagon,circle,diamond","A","C","","","","test","27","true","1","categorize-html","107","359564","0.0-6.0-53.0","25343","202301710","rare"
"562.2999999523163","false","hexagon,square","80","81,80","square,triangle,hexagon,circle,diamond","C","A","","","","test","28","true","1","categorize-html","109","361636","0.0-6.0-55.0","25343","202301710","rare"
"963","false","triangle,hexagon","80","81,80","square,triangle,hexagon,circle,diamond","B","C","","","","test","29","true","1","categorize-html","111","364113","0.0-6.0-57.0","25343","202301710","rare"
"742.8999999761581","false","hexagon","80","81,80","square,triangle,hexagon,circle,diamond","C","","","","","test","30","true","1","categorize-html","113","366368","0.0-6.0-59.0","25343","202301710","rare"
"602.1000000238419","false","square","81","81,80","square,triangle,hexagon,circle,diamond","A","","","","","test","31","true","1","categorize-html","115","368479","0.0-6.0-61.0","25343","202301710","common"
"637.1999999880791","false","square","80","81,80","square,triangle,hexagon,circle,diamond","A","","","","","test","32","true","1","categorize-html","117","370627","0.0-6.0-63.0","25343","202301710","rare"
"863.5","false","hexagon","80","81,80","square,triangle,hexagon,circle,diamond","C","","","","","test","33","true","1","categorize-html","119","373005","0.0-6.0-65.0","25343","202301710","rare"
"2333.600000023842","false","square,triangle","81","81,80","square,triangle,hexagon,circle,diamond","A","B","","","","test","34","true","1","categorize-html","121","376853","0.0-6.0-67.0","25343","202301710","common"
"875.9000000357628","false","hexagon,triangle","80","81,80","square,triangle,hexagon,circle,diamond","C","B","","","","test","35","true","1","categorize-html","123","379251","0.0-6.0-69.0","25343","202301710","rare"
"851.4000000357628","false","triangle","81","81,80","square,triangle,hexagon,circle,diamond","B","","","","","test","36","true","1","categorize-html","125","381620","0.0-6.0-71.0","25343","202301710","common"
"1141.6000000238419","false","square,triangle","81","81,80","square,triangle,hexagon,circle,diamond","A","B","","","","test","37","true","1","categorize-html","127","384283","0.0-6.0-73.0","25343","202301710","common"
"936.5999999642372","false","triangle,hexagon","80","81,80","square,triangle,hexagon,circle,diamond","B","C","","","","test","38","true","1","categorize-html","129","386736","0.0-6.0-75.0","25343","202301710","rare"
"988.8999999761581","false","square","80","81,80","square,triangle,hexagon,circle,diamond","A","","","","","test","39","true","1","categorize-html","131","389230","0.0-6.0-77.0","25343","202301710","rare"
"526.1000000238419","false","hexagon","80","81,80","square,triangle,hexagon,circle,diamond","C","","","","","test","40","true","1","categorize-html","133","391270","0.0-6.0-79.0","25343","202301710","rare"
"446","false","hexagon","80","81,80","square,triangle,hexagon,circle,diamond","C","","","","","test","41","true","1","categorize-html","135","393233","0.0-6.0-81.0","25343","202301710","rare"
"1872.300000011921","false","hexagon,triangle","80","81,80","square,triangle,hexagon,circle,diamond","C","B","","","","test","42","true","1","categorize-html","137","396621","0.0-6.0-83.0","25343","202301710","rare"
"1044.8999999761581","false","triangle,square","81","81,80","square,triangle,hexagon,circle,diamond","B","A","","","","test","43","true","1","categorize-html","139","399175","0.0-6.0-85.0","25343","202301710","common"
"1171.0999999642372","false","square,hexagon","80","81,80","square,triangle,hexagon,circle,diamond","A","C","","","","test","44","true","1","categorize-html","141","401865","0.0-6.0-87.0","25343","202301710","rare"
"2800","false","triangle","81","81,80","square,triangle,hexagon,circle,diamond","B","","","","","test","45","true","1","categorize-html","143","406182","0.0-6.0-89.0","25343","202301710","common"
"452.30000001192093","false","triangle","81","81,80","square,triangle,hexagon,circle,diamond","B","","","","","test","46","true","1","categorize-html","145","408157","0.0-6.0-91.0","25343","202301710","common"
"604","false","square","80","81,80","square,triangle,hexagon,circle,diamond","A","","","","","test","47","true","1","categorize-html","147","410272","0.0-6.0-93.0","25343","202301710","rare"
"820.1999999880791","false","hexagon,square","80","81,80","square,triangle,hexagon,circle,diamond","C","A","","","","test","48","true","1","categorize-html","149","412606","0.0-6.0-95.0","25343","202301710","rare"
"1130.5","false","square","80","81,80","square,triangle,hexagon,circle,diamond","A","","","","","test","49","true","1","categorize-html","152","416589","0.0-6.0-98.0","25343","202301710","rare"
"379.39999997615814","false","square","80","81,80","square,triangle,hexagon,circle,diamond","A","","","","","test","50","true","1","categorize-html","154","418493","0.0-6.0-100.0","25343","202301710","rare"
"2046.800000011921","false","square,triangle","81","81,80","square,triangle,hexagon,circle,diamond","A","B","","","","test","51","true","1","categorize-html","156","422061","0.0-6.0-102.0","25343","202301710","common"
"564.6999999880791","false","square,hexagon","80","81,80","square,triangle,hexagon,circle,diamond","A","C","","","","test","52","true","1","categorize-html","158","424136","0.0-6.0-104.0","25343","202301710","rare"
"620.8999999761581","false","hexagon","80","81,80","square,triangle,hexagon,circle,diamond","C","","","","","test","53","true","1","categorize-html","160","426280","0.0-6.0-106.0","25343","202301710","rare"
"514.4000000357628","false","triangle","81","81,80","square,triangle,hexagon,circle,diamond","B","","","","","test","54","true","1","categorize-html","162","428318","0.0-6.0-108.0","25343","202301710","common"
"601.2999999523163","false","hexagon,square","80","81,80","square,triangle,hexagon,circle,diamond","C","A","","","","test","55","true","1","categorize-html","164","430437","0.0-6.0-110.0","25343","202301710","rare"
"875.3000000119209","false","triangle,hexagon","80","81,80","square,triangle,hexagon,circle,diamond","B","C","","","","test","56","true","1","categorize-html","166","432833","0.0-6.0-112.0","25343","202301710","rare"
"456","false","hexagon","80","81,80","square,triangle,hexagon,circle,diamond","C","","","","","test","57","true","1","categorize-html","168","434809","0.0-6.0-114.0","25343","202301710","rare"
"500.30000001192093","false","triangle","81","81,80","square,triangle,hexagon,circle,diamond","B","","","","","test","58","true","1","categorize-html","170","436828","0.0-6.0-116.0","25343","202301710","common"
"524.6000000238419","false","triangle,square","81","81,80","square,triangle,hexagon,circle,diamond","B","A","","","","test","59","true","1","categorize-html","172","438869","0.0-6.0-118.0","25343","202301710","common"
"1137.1000000238419","false","hexagon,triangle","80","81,80","square,triangle,hexagon,circle,diamond","C","B","","","","test","60","true","1","categorize-html","174","441528","0.0-6.0-120.0","25343","202301710","rare"
"460.9000000357628","false","hexagon","80","81,80","square,triangle,hexagon,circle,diamond","C","","","","","test","61","true","1","categorize-html","176","443512","0.0-6.0-122.0","25343","202301710","rare"
"579.9000000357628","false","triangle","81","81,80","square,triangle,hexagon,circle,diamond","B","","","","","test","62","true","1","categorize-html","178","445609","0.0-6.0-124.0","25343","202301710","common"
"842.1000000238419","false","hexagon,square","80","81,80","square,triangle,hexagon,circle,diamond","C","A","","","","test","63","true","1","categorize-html","180","447963","0.0-6.0-126.0","25343","202301710","rare"
"623.3000000119209","false","square,triangle","81","81,80","square,triangle,hexagon,circle,diamond","A","B","","","","test","64","true","1","categorize-html","182","450101","0.0-6.0-128.0","25343","202301710","common"
"934.9000000357628","false","hexagon,triangle","80","81,80","square,triangle,hexagon,circle,diamond","C","B","","","","test","65","true","1","categorize-html","184","452560","0.0-6.0-130.0","25343","202301710","rare"
"708.8000000119209","false","square","80","81,80","square,triangle,hexagon,circle,diamond","A","","","","","test","66","true","1","categorize-html","186","454781","0.0-6.0-132.0","25343","202301710","rare"
"762.1000000238419","false","square,hexagon","81","81,80","square,triangle,hexagon,circle,diamond","A","C","","","","test","67","true","1","categorize-html","188","457058","0.0-6.0-134.0","25343","202301710","common"
"808.6999999880791","false","triangle,hexagon","80","81,80","square,triangle,hexagon,circle,diamond","B","C","","","","test","68","true","1","categorize-html","190","459380","0.0-6.0-136.0","25343","202301710","rare"
"1312.8999999761581","false","triangle","81","81,80","square,triangle,hexagon,circle,diamond","B","","","","","test","69","true","1","categorize-html","192","462203","0.0-6.0-138.0","25343","202301710","common"
"574.1000000238419","false","hexagon","80","81,80","square,triangle,hexagon,circle,diamond","C","","","","","test","70","true","1","categorize-html","194","464297","0.0-6.0-140.0","25343","202301710","rare"
"908.3000000119209","false","triangle,square","81","81,80","square,triangle,hexagon,circle,diamond","B","A","","","","test","71","true","1","categorize-html","196","466722","0.0-6.0-142.0","25343","202301710","common"
"748.2000000476837","false","square","80","81,80","square,triangle,hexagon,circle,diamond","A","","","","","test","72","true","1","categorize-html","198","468980","0.0-6.0-144.0","25343","202301710","rare"
"782.1000000238419","false","triangle","81","81,80","square,triangle,hexagon,circle,diamond","B","","","","","test","73","true","1","categorize-html","201","472530","0.0-6.0-147.0","25343","202301710","common"
"1024.6000000238419","false","hexagon,triangle","80","81,80","square,triangle,hexagon,circle,diamond","C","B","","","","test","74","true","1","categorize-html","203","475071","0.0-6.0-149.0","25343","202301710","rare"
"949.1000000238419","false","square,hexagon","80","81,80","square,triangle,hexagon,circle,diamond","A","C","","","","test","75","true","1","categorize-html","205","477542","0.0-6.0-151.0","25343","202301710","rare"
"360.30000001192093","false","hexagon","80","81,80","square,triangle,hexagon,circle,diamond","C","","","","","test","76","true","1","categorize-html","207","479414","0.0-6.0-153.0","25343","202301710","rare"
"705.7999999523163","false","square","80","81,80","square,triangle,hexagon,circle,diamond","A","","","","","test","77","true","1","categorize-html","209","481627","0.0-6.0-155.0","25343","202301710","rare"
"735.4000000357628","false","triangle,square","81","81,80","square,triangle,hexagon,circle,diamond","B","A","","","","test","78","true","1","categorize-html","211","483880","0.0-6.0-157.0","25343","202301710","common"
"846.6999999880791","false","square,triangle","81","81,80","square,triangle,hexagon,circle,diamond","A","B","","","","test","79","true","1","categorize-html","213","486238","0.0-6.0-159.0","25343","202301710","common"
"569.3999999761581","false","square","81","81,80","square,triangle,hexagon,circle,diamond","A","","","","","test","80","true","1","categorize-html","215","488331","0.0-6.0-161.0","25343","202301710","common"
"631.8999999761581","false","triangle","81","81,80","square,triangle,hexagon,circle,diamond","B","","","","","test","81","true","1","categorize-html","217","490479","0.0-6.0-163.0","25343","202301710","common"
"615.9000000357628","false","hexagon,square","80","81,80","square,triangle,hexagon,circle,diamond","C","A","","","","test","82","true","1","categorize-html","219","492605","0.0-6.0-165.0","25343","202301710","rare"
"421.5","false","hexagon","80","81,80","square,triangle,hexagon,circle,diamond","C","","","","","test","83","true","1","categorize-html","221","494548","0.0-6.0-167.0","25343","202301710","rare"
"856.1000000238419","false","triangle,hexagon","80","81,80","square,triangle,hexagon,circle,diamond","B","C","","","","test","84","true","1","categorize-html","223","496919","0.0-6.0-169.0","25343","202301710","rare"
"796.6999999880791","false","triangle","81","81,80","square,triangle,hexagon,circle,diamond","B","","","","","test","85","true","1","categorize-html","225","499231","0.0-6.0-171.0","25343","202301710","common"
"505.30000001192093","false","hexagon","80","81,80","square,triangle,hexagon,circle,diamond","C","","","","","test","86","true","1","categorize-html","227","501248","0.0-6.0-173.0","25343","202301710","rare"
"843.5999999642372","false","triangle,square","81","81,80","square,triangle,hexagon,circle,diamond","B","A","","","","test","87","true","1","categorize-html","229","503599","0.0-6.0-175.0","25343","202301710","common"
"907.1000000238419","false","square","80","81,80","square,triangle,hexagon,circle,diamond","A","","","","","test","88","true","1","categorize-html","231","506032","0.0-6.0-177.0","25343","202301710","rare"
"942.5","false","triangle,hexagon","80","81,80","square,triangle,hexagon,circle,diamond","B","C","","","","test","89","true","1","categorize-html","233","508491","0.0-6.0-179.0","25343","202301710","rare"
"731.3999999761581","false","square,hexagon","80","81,80","square,triangle,hexagon,circle,diamond","A","C","","","","test","90","true","1","categorize-html","235","510745","0.0-6.0-181.0","25343","202301710","rare"
"1972.199999988079","false","square,triangle","81","81,80","square,triangle,hexagon,circle,diamond","A","B","","","","test","91","true","1","categorize-html","237","514233","0.0-6.0-183.0","25343","202301710","common"
"729.0999999642372","false","hexagon","80","81,80","square,triangle,hexagon,circle,diamond","C","","","","","test","92","true","1","categorize-html","239","516479","0.0-6.0-185.0","25343","202301710","rare"
"967.5","false","triangle","81","81,80","square,triangle,hexagon,circle,diamond","B","","","","","test","93","true","1","categorize-html","241","518959","0.0-6.0-187.0","25343","202301710","common"
"978.5","false","hexagon,triangle","80","81,80","square,triangle,hexagon,circle,diamond","C","B","","","","test","94","true","1","categorize-html","243","521450","0.0-6.0-189.0","25343","202301710","rare"
"871.0999999642372","false","square","80","81,80","square,triangle,hexagon,circle,diamond","A","","","","","test","95","true","1","categorize-html","245","523833","0.0-6.0-191.0","25343","202301710","rare"
"930.8000000119209","false","hexagon,square","80","81,80","square,triangle,hexagon,circle,diamond","C","A","","","","test","96","true","1","categorize-html","247","526281","0.0-6.0-193.0","25343","202301710","rare"
"1051.8999999761581","false","triangle,hexagon","80","81,80","square,triangle,hexagon,circle,diamond","B","C","","","","test","97","true","1","categorize-html","250","530308","0.0-6.0-196.0","25343","202301710","rare"
"546.1999999880791","false","triangle","81","81,80","square,triangle,hexagon,circle,diamond","B","","","","","test","98","true","1","categorize-html","252","532367","0.0-6.0-198.0","25343","202301710","common"
"476.69999998807907","false","hexagon","80","81,80","square,triangle,hexagon,circle,diamond","C","","","","","test","99","true","1","categorize-html","254","534351","0.0-6.0-200.0","25343","202301710","rare"
"836.1999999880791","false","square,triangle","81","81,80","square,triangle,hexagon,circle,diamond","A","B","","","","test","100","true","1","categorize-html","256","536699","0.0-6.0-202.0","25343","202301710","common"
"514.3000000119209","false","triangle,square","81","81,80","square,triangle,hexagon,circle,diamond","B","A","","","","test","101","true","1","categorize-html","258","538725","0.0-6.0-204.0","25343","202301710","common"
"473.2000000476837","false","square","81","81,80","square,triangle,hexagon,circle,diamond","A","","","","","test","102","true","1","categorize-html","260","540715","0.0-6.0-206.0","25343","202301710","common"
"511.19999998807907","false","hexagon","80","81,80","square,triangle,hexagon,circle,diamond","C","","","","","test","103","true","1","categorize-html","262","542744","0.0-6.0-208.0","25343","202301710","rare"
"931.0999999642372","false","hexagon,square","80","81,80","square,triangle,hexagon,circle,diamond","C","A","","","","test","104","true","1","categorize-html","264","545184","0.0-6.0-210.0","25343","202301710","rare"
"644.3999999761581","false","square,hexagon","80","81,80","square,triangle,hexagon,circle,diamond","A","C","","","","test","105","true","1","categorize-html","266","547335","0.0-6.0-212.0","25343","202301710","rare"
"743.2999999523163","false","square","80","81,80","square,triangle,hexagon,circle,diamond","A","","","","","test","106","true","1","categorize-html","268","549595","0.0-6.0-214.0","25343","202301710","rare"
"936.6999999880791","false","hexagon,triangle","81","81,80","square,triangle,hexagon,circle,diamond","C","B","","","","test","107","true","1","categorize-html","270","552049","0.0-6.0-216.0","25343","202301710","common"
"722.6999999880791","false","triangle","81","81,80","square,triangle,hexagon,circle,diamond","B","","","","","test","108","true","1","categorize-html","272","554285","0.0-6.0-218.0","25343","202301710","common"
"733.5","false","hexagon,triangle","80","81,80","square,triangle,hexagon,circle,diamond","C","B","","","","test","109","true","1","categorize-html","274","556523","0.0-6.0-220.0","25343","202301710","rare"
"775.1000000238419","false","square","80","81,80","square,triangle,hexagon,circle,diamond","A","","","","","test","110","true","1","categorize-html","276","558818","0.0-6.0-222.0","25343","202301710","rare"
"1220.2000000476837","false","square,triangle","81","81,80","square,triangle,hexagon,circle,diamond","A","B","","","","test","111","true","1","categorize-html","278","561551","0.0-6.0-224.0","25343","202301710","common"
"749.5","false","square","80","81,80","square,triangle,hexagon,circle,diamond","A","","","","","test","112","true","1","categorize-html","280","563809","0.0-6.0-226.0","25343","202301710","rare"
"741.9000000357628","false","hexagon","80","81,80","square,triangle,hexagon,circle,diamond","C","","","","","test","113","true","1","categorize-html","282","566062","0.0-6.0-228.0","25343","202301710","rare"
"534","false","hexagon","80","81,80","square,triangle,hexagon,circle,diamond","C","","","","","test","114","true","1","categorize-html","284","568109","0.0-6.0-230.0","25343","202301710","rare"
"594.3000000119209","false","triangle","81","81,80","square,triangle,hexagon,circle,diamond","B","","","","","test","115","true","1","categorize-html","286","570227","0.0-6.0-232.0","25343","202301710","common"
"787.3000000119209","false","triangle,square","81","81,80","square,triangle,hexagon,circle,diamond","B","A","","","","test","116","true","1","categorize-html","288","572533","0.0-6.0-234.0","25343","202301710","common"
"618.7000000476837","false","triangle,hexagon","80","81,80","square,triangle,hexagon,circle,diamond","B","C","","","","test","117","true","1","categorize-html","290","574662","0.0-6.0-236.0","25343","202301710","rare"
"1176.199999988079","false","triangle","81","81,80","square,triangle,hexagon,circle,diamond","B","","","","","test","118","true","1","categorize-html","292","577357","0.0-6.0-238.0","25343","202301710","common"
"1241.800000011921","false","square,hexagon","80","81,80","square,triangle,hexagon,circle,diamond","A","C","","","","test","119","true","1","categorize-html","294","580117","0.0-6.0-240.0","25343","202301710","rare"
"661.1000000238419","false","hexagon,square","80","81,80","square,triangle,hexagon,circle,diamond","C","A","","","","test","120","true","1","categorize-html","296","582286","0.0-6.0-242.0","25343","202301710","rare"
