"rt","correct","stimulus","key_press","keys","symptoms_shuffle","symptom1","symptom2","symptom3","key","category","phase","trial","include","block","trial_type","trial_index","time_elapsed","internal_node_id","ppt","session","abresp"
"null","false","diamond,circle,triangle","null","81,80","circle,triangle,square,diamond,hexagon","D","A","B","81","common","training","1","true","1","categorize-html","4","71347","0.0-4.0-0.0","25728","202302317","none"
"2105.199999988079","false","triangle,circle,diamond","32","81,80","circle,triangle,square,diamond,hexagon","B","A","D","81","common","training","2","true","1","categorize-html","6","74468","0.0-4.0-2.0","25728","202302317","none"
"1565.5","false","triangle,circle,diamond","32","81,80","circle,triangle,square,diamond,hexagon","B","A","D","81","common","training","3","true","1","categorize-html","8","77068","0.0-4.0-4.0","25728","202302317","none"
"2300.199999988079","false","diamond,triangle,circle","32","81,80","circle,triangle,square,diamond,hexagon","D","B","A","81","common","training","4","true","1","categorize-html","10","80400","0.0-4.0-6.0","25728","202302317","none"
"1893.199999988079","false","hexagon,circle,square","32","81,80","circle,triangle,square,diamond,hexagon","E","A","C","80","rare","training","5","true","1","categorize-html","12","83335","0.0-4.0-8.0","25728","202302317","none"
"1520.5","false","circle,square,hexagon","32","81,80","circle,triangle,square,diamond,hexagon","A","C","E","80","rare","training","6","true","1","categorize-html","14","85869","0.0-4.0-10.0","25728","202302317","none"
"1786.1000000238419","false","circle,diamond,triangle","32","81,80","circle,triangle,square,diamond,hexagon","A","D","B","81","common","training","7","true","1","categorize-html","16","88685","0.0-4.0-12.0","25728","202302317","none"
"1673.2999999523163","false","diamond,triangle,circle","32","81,80","circle,triangle,square,diamond,hexagon","D","B","A","81","common","training","8","true","1","categorize-html","18","91384","0.0-4.0-14.0","25728","202302317","none"
"1654.699999988079","false","triangle,diamond,circle","32","81,80","circle,triangle,square,diamond,hexagon","B","D","A","81","common","training","9","true","1","categorize-html","20","94066","0.0-4.0-16.0","25728","202302317","none"
"1786.800000011921","false","hexagon,square,circle","32","81,80","circle,triangle,square,diamond,hexagon","E","C","A","80","rare","training","10","true","1","categorize-html","22","96883","0.0-4.0-18.0","25728","202302317","none"
"1200","false","diamond,triangle,circle","32","81,80","circle,triangle,square,diamond,hexagon","D","B","A","81","common","training","11","true","1","categorize-html","24","99117","0.0-4.0-20.0","25728","202302317","none"
"1614.300000011921","false","triangle,diamond,circle","32","81,80","circle,triangle,square,diamond,hexagon","B","D","A","81","common","training","12","true","1","categorize-html","26","101751","0.0-4.0-22.0","25728","202302317","none"
"1200.800000011921","false","square,circle,hexagon","32","81,80","circle,triangle,square,diamond,hexagon","C","A","E","80","rare","training","13","true","1","categorize-html","28","103985","0.0-4.0-24.0","25728","202302317","none"
"1911.699999988079","false","square,hexagon,circle","32","81,80","circle,triangle,square,diamond,hexagon","C","E","A","80","rare","training","14","true","1","categorize-html","30","106934","0.0-4.0-26.0","25728","202302317","none"
"1838.199999988079","false","circle,triangle,diamond","32","81,80","circle,triangle,square,diamond,hexagon","A","B","D","81","common","training","15","true","1","categorize-html","32","109799","0.0-4.0-28.0","25728","202302317","none"
"1053.9000000357628","false","triangle,circle,diamond","32","81,80","circle,triangle,square,diamond,hexagon","B","A","D","81","common","training","16","true","1","categorize-html","34","111883","0.0-4.0-30.0","25728","202302317","none"
"1452.3999999761581","false","circle,diamond,triangle","32","81,80","circle,triangle,square,diamond,hexagon","A","D","B","81","common","training","17","true","1","categorize-html","36","114368","0.0-4.0-32.0","25728","202302317","none"
"1216.7000000476837","false","triangle,diamond,circle","32","81,80","circle,triangle,square,diamond,hexagon","B","D","A","81","common","training","18","true","1","categorize-html","38","116617","0.0-4.0-34.0","25728","202302317","none"
"1382.4000000357628","false","circle,hexagon,square","32","81,80","circle,triangle,square,diamond,hexagon","A","E","C","80","rare","training","19","true","1","categorize-html","40","119034","0.0-4.0-36.0","25728","202302317","none"
"1411.5","false","diamond,circle,triangle","32","81,80","circle,triangle,square,diamond,hexagon","D","A","B","81","common","training","20","true","1","categorize-html","42","121468","0.0-4.0-38.0","25728","202302317","none"
"1284","false","circle,triangle,diamond","32","81,80","circle,triangle,square,diamond,hexagon","A","B","D","81","common","training","21","true","1","categorize-html","44","123784","0.0-4.0-40.0","25728","202302317","none"
"1276.699999988079","false","circle,triangle,diamond","32","81,80","circle,triangle,square,diamond,hexagon","A","B","D","81","common","training","22","true","1","categorize-html","46","126087","0.0-4.0-42.0","25728","202302317","none"
"1238.199999988079","false","diamond,circle,triangle","32","81,80","circle,triangle,square,diamond,hexagon","D","A","B","81","common","training","23","true","1","categorize-html","48","128350","0.0-4.0-44.0","25728","202302317","none"
"1000.0999999642372","false","circle,diamond,triangle","32","81,80","circle,triangle,square,diamond,hexagon","A","D","B","81","common","training","24","true","1","categorize-html","50","130387","0.0-4.0-46.0","25728","202302317","none"
"5492.900000035763","false","square,triangle","80","81,80","circle,triangle,square,diamond,hexagon","C","B","","","","test","1","true","1","categorize-html","54","169972","0.0-6.0-0.0","25728","202302317","rare"
"3589.300000011921","false","triangle","81","81,80","circle,triangle,square,diamond,hexagon","B","","","","","test","2","true","1","categorize-html","56","175089","0.0-6.0-2.0","25728","202302317","common"
"2187","false","circle","81","81,80","circle,triangle,square,diamond,hexagon","A","","","","","test","3","true","1","categorize-html","58","178804","0.0-6.0-4.0","25728","202302317","common"
"1109.5","false","square","80","81,80","circle,triangle,square,diamond,hexagon","C","","","","","test","4","true","1","categorize-html","60","181447","0.0-6.0-6.0","25728","202302317","rare"
"4558.599999964237","false","square,circle","81","81,80","circle,triangle,square,diamond,hexagon","C","A","","","","test","5","true","1","categorize-html","62","187545","0.0-6.0-8.0","25728","202302317","common"
"4725.299999952316","false","triangle","81","81,80","circle,triangle,square,diamond,hexagon","B","","","","","test","6","true","1","categorize-html","64","193797","0.0-6.0-10.0","25728","202302317","common"
"2893.5","false","square","80","81,80","circle,triangle,square,diamond,hexagon","C","","","","","test","7","true","1","categorize-html","66","198222","0.0-6.0-12.0","25728","202302317","rare"
"3733.7999999523163","false","triangle,square","80","81,80","circle,triangle,square,diamond,hexagon","B","C","","","","test","8","true","1","categorize-html","68","203486","0.0-6.0-14.0","25728","202302317","rare"
"2226.300000011921","false","circle,triangle","81","81,80","circle,triangle,square,diamond,hexagon","A","B","","","","test","9","true","1","categorize-html","70","207242","0.0-6.0-16.0","25728","202302317","common"
"2415.199999988079","false","circle","81","81,80","circle,triangle,square,diamond,hexagon","A","","","","","test","10","true","1","categorize-html","72","211189","0.0-6.0-18.0","25728","202302317","common"
"1458.300000011921","false","circle,square","80","81,80","circle,triangle,square,diamond,hexagon","A","C","","","","test","11","true","1","categorize-html","74","214170","0.0-6.0-20.0","25728","202302317","rare"
"1652.800000011921","false","triangle,circle","81","81,80","circle,triangle,square,diamond,hexagon","B","A","","","","test","12","true","1","categorize-html","76","217354","0.0-6.0-22.0","25728","202302317","common"
"2265.400000035763","false","circle,square","80","81,80","circle,triangle,square,diamond,hexagon","A","C","","","","test","13","true","1","categorize-html","78","221143","0.0-6.0-24.0","25728","202302317","rare"
"1383.5999999642372","false","circle","80","81,80","circle,triangle,square,diamond,hexagon","A","","","","","test","14","true","1","categorize-html","80","224056","0.0-6.0-26.0","25728","202302317","rare"
"2046.5","false","square,circle","80","81,80","circle,triangle,square,diamond,hexagon","C","A","","","","test","15","true","1","categorize-html","82","227639","0.0-6.0-28.0","25728","202302317","rare"
"849.3000000119209","false","triangle","81","81,80","circle,triangle,square,diamond,hexagon","B","","","","","test","16","true","1","categorize-html","84","230008","0.0-6.0-30.0","25728","202302317","common"
"2274.600000023842","false","square","80","81,80","circle,triangle,square,diamond,hexagon","C","","","","","test","17","true","1","categorize-html","86","233815","0.0-6.0-32.0","25728","202302317","rare"
"2242.699999988079","false","triangle","81","81,80","circle,triangle,square,diamond,hexagon","B","","","","","test","18","true","1","categorize-html","88","237590","0.0-6.0-34.0","25728","202302317","common"
"1368.800000011921","false","circle,triangle","81","81,80","circle,triangle,square,diamond,hexagon","A","B","","","","test","19","true","1","categorize-html","90","240487","0.0-6.0-36.0","25728","202302317","common"
"2651","false","triangle,square","80","81,80","circle,triangle,square,diamond,hexagon","B","C","","","","test","20","true","1","categorize-html","92","244671","0.0-6.0-38.0","25728","202302317","rare"
"2220.800000011921","false","square","80","81,80","circle,triangle,square,diamond,hexagon","C","","","","","test","21","true","1","categorize-html","94","248421","0.0-6.0-40.0","25728","202302317","rare"
"961.7999999523163","false","circle","81","81,80","circle,triangle,square,diamond,hexagon","A","","","","","test","22","true","1","categorize-html","96","250923","0.0-6.0-42.0","25728","202302317","common"
"2841.899999976158","false","square,triangle","80","81,80","circle,triangle,square,diamond,hexagon","C","B","","","","test","23","true","1","categorize-html","98","255287","0.0-6.0-44.0","25728","202302317","rare"
"1542.699999988079","false","triangle,circle","81","81,80","circle,triangle,square,diamond,hexagon","B","A","","","","test","24","true","1","categorize-html","100","258358","0.0-6.0-46.0","25728","202302317","common"
"2641.099999964237","false","triangle","81","81,80","circle,triangle,square,diamond,hexagon","B","","","","","test","25","true","1","categorize-html","103","267674","0.0-6.0-49.0","25728","202302317","common"
"1096.0999999642372","false","circle,triangle","81","81,80","circle,triangle,square,diamond,hexagon","A","B","","","","test","26","true","1","categorize-html","105","270291","0.0-6.0-51.0","25728","202302317","common"
"1597.1000000238419","false","circle,square","80","81,80","circle,triangle,square,diamond,hexagon","A","C","","","","test","27","true","1","categorize-html","107","273406","0.0-6.0-53.0","25728","202302317","rare"
"971.7999999523163","false","square,triangle","81","81,80","circle,triangle,square,diamond,hexagon","C","B","","","","test","28","true","1","categorize-html","109","275905","0.0-6.0-55.0","25728","202302317","common"
"2230.300000011921","false","triangle,square","81","81,80","circle,triangle,square,diamond,hexagon","B","C","","","","test","29","true","1","categorize-html","111","279672","0.0-6.0-57.0","25728","202302317","common"
"687.8999999761581","false","square,circle","80","81,80","circle,triangle,square,diamond,hexagon","C","A","","","","test","30","true","1","categorize-html","113","281887","0.0-6.0-59.0","25728","202302317","rare"
"1315","false","circle","81","81,80","circle,triangle,square,diamond,hexagon","A","","","","","test","31","true","1","categorize-html","115","284726","0.0-6.0-61.0","25728","202302317","common"
"1281.5999999642372","false","triangle,circle","81","81,80","circle,triangle,square,diamond,hexagon","B","A","","","","test","32","true","1","categorize-html","117","287537","0.0-6.0-63.0","25728","202302317","common"
"1047.5999999642372","false","square","80","81,80","circle,triangle,square,diamond,hexagon","C","","","","","test","33","true","1","categorize-html","119","290108","0.0-6.0-65.0","25728","202302317","rare"
"633.3000000119209","false","square","80","81,80","circle,triangle,square,diamond,hexagon","C","","","","","test","34","true","1","categorize-html","121","292270","0.0-6.0-67.0","25728","202302317","rare"
"1123.3999999761581","false","circle","81","81,80","circle,triangle,square,diamond,hexagon","A","","","","","test","35","true","1","categorize-html","123","294922","0.0-6.0-69.0","25728","202302317","common"
"810.3000000119209","false","triangle","81","81,80","circle,triangle,square,diamond,hexagon","B","","","","","test","36","true","1","categorize-html","125","297250","0.0-6.0-71.0","25728","202302317","common"
"1423.800000011921","false","square,circle","80","81,80","circle,triangle,square,diamond,hexagon","C","A","","","","test","37","true","1","categorize-html","127","300200","0.0-6.0-73.0","25728","202302317","rare"
"1506.2999999523163","false","circle,square","80","81,80","circle,triangle,square,diamond,hexagon","A","C","","","","test","38","true","1","categorize-html","129","303238","0.0-6.0-75.0","25728","202302317","rare"
"2846.5","false","square,triangle","81","81,80","circle,triangle,square,diamond,hexagon","C","B","","","","test","39","true","1","categorize-html","131","307605","0.0-6.0-77.0","25728","202302317","common"
"1115.5","false","circle,triangle","81","81,80","circle,triangle,square,diamond,hexagon","A","B","","","","test","40","true","1","categorize-html","133","310242","0.0-6.0-79.0","25728","202302317","common"
"1118.3999999761581","false","triangle","81","81,80","circle,triangle,square,diamond,hexagon","B","","","","","test","41","true","1","categorize-html","135","312889","0.0-6.0-81.0","25728","202302317","common"
"920.4000000357628","false","square","80","81,80","circle,triangle,square,diamond,hexagon","C","","","","","test","42","true","1","categorize-html","137","315337","0.0-6.0-83.0","25728","202302317","rare"
"711.1999999880791","false","circle","81","81,80","circle,triangle,square,diamond,hexagon","A","","","","","test","43","true","1","categorize-html","139","317583","0.0-6.0-85.0","25728","202302317","common"
"754.1000000238419","false","square","80","81,80","circle,triangle,square,diamond,hexagon","C","","","","","test","44","true","1","categorize-html","141","319872","0.0-6.0-87.0","25728","202302317","rare"
"1213.800000011921","false","triangle,circle","81","81,80","circle,triangle,square,diamond,hexagon","B","A","","","","test","45","true","1","categorize-html","143","322617","0.0-6.0-89.0","25728","202302317","common"
"1052.4000000357628","false","triangle","81","81,80","circle,triangle,square,diamond,hexagon","B","","","","","test","46","true","1","categorize-html","145","325206","0.0-6.0-91.0","25728","202302317","common"
"556","false","circle","80","81,80","circle,triangle,square,diamond,hexagon","A","","","","","test","47","true","1","categorize-html","147","327289","0.0-6.0-93.0","25728","202302317","rare"
"2839.199999988079","false","triangle,square","80","81,80","circle,triangle,square,diamond,hexagon","B","C","","","","test","48","true","1","categorize-html","149","331655","0.0-6.0-95.0","25728","202302317","rare"
"1487.8999999761581","false","square","80","81,80","circle,triangle,square,diamond,hexagon","C","","","","","test","49","true","1","categorize-html","152","336507","0.0-6.0-98.0","25728","202302317","rare"
"566.1999999880791","false","circle","81","81,80","circle,triangle,square,diamond,hexagon","A","","","","","test","50","true","1","categorize-html","154","338604","0.0-6.0-100.0","25728","202302317","common"
"1338.3999999761581","false","triangle","81","81,80","circle,triangle,square,diamond,hexagon","B","","","","","test","51","true","1","categorize-html","156","341480","0.0-6.0-102.0","25728","202302317","common"
"2168.599999964237","false","triangle","81","81,80","circle,triangle,square,diamond,hexagon","B","","","","","test","52","true","1","categorize-html","158","345171","0.0-6.0-104.0","25728","202302317","common"
"1896.699999988079","false","triangle,square","80","81,80","circle,triangle,square,diamond,hexagon","B","C","","","","test","53","true","1","categorize-html","160","348590","0.0-6.0-106.0","25728","202302317","rare"
"1110","false","square,triangle","80","81,80","circle,triangle,square,diamond,hexagon","C","B","","","","test","54","true","1","categorize-html","162","351225","0.0-6.0-108.0","25728","202302317","rare"
"690.6999999880791","false","triangle,circle","81","81,80","circle,triangle,square,diamond,hexagon","B","A","","","","test","55","true","1","categorize-html","164","353440","0.0-6.0-110.0","25728","202302317","common"
"796.8999999761581","false","square","80","81,80","circle,triangle,square,diamond,hexagon","C","","","","","test","56","true","1","categorize-html","166","355772","0.0-6.0-112.0","25728","202302317","rare"
"877.4000000357628","false","circle,square","80","81,80","circle,triangle,square,diamond,hexagon","A","C","","","","test","57","true","1","categorize-html","168","358173","0.0-6.0-114.0","25728","202302317","rare"
"624.4000000357628","false","circle","81","81,80","circle,triangle,square,diamond,hexagon","A","","","","","test","58","true","1","categorize-html","170","360323","0.0-6.0-116.0","25728","202302317","common"
"678.2999999523163","false","circle,triangle","81","81,80","circle,triangle,square,diamond,hexagon","A","B","","","","test","59","true","1","categorize-html","172","362538","0.0-6.0-118.0","25728","202302317","common"
"860.6999999880791","false","square,circle","80","81,80","circle,triangle,square,diamond,hexagon","C","A","","","","test","60","true","1","categorize-html","174","364924","0.0-6.0-120.0","25728","202302317","rare"
"789.1000000238419","false","triangle,square","81","81,80","circle,triangle,square,diamond,hexagon","B","C","","","","test","61","true","1","categorize-html","176","367238","0.0-6.0-122.0","25728","202302317","common"
"2310.600000023842","false","circle,square","80","81,80","circle,triangle,square,diamond,hexagon","A","C","","","","test","62","true","1","categorize-html","178","371072","0.0-6.0-124.0","25728","202302317","rare"
"1066.1000000238419","false","square,circle","80","81,80","circle,triangle,square,diamond,hexagon","C","A","","","","test","63","true","1","categorize-html","180","373670","0.0-6.0-126.0","25728","202302317","rare"
"560.3000000119209","false","triangle","81","81,80","circle,triangle,square,diamond,hexagon","B","","","","","test","64","true","1","categorize-html","182","375755","0.0-6.0-128.0","25728","202302317","common"
"1992.6000000238419","false","square","80","81,80","circle,triangle,square,diamond,hexagon","C","","","","","test","65","true","1","categorize-html","184","379277","0.0-6.0-130.0","25728","202302317","rare"
"891.8999999761581","false","triangle","81","81,80","circle,triangle,square,diamond,hexagon","B","","","","","test","66","true","1","categorize-html","186","381708","0.0-6.0-132.0","25728","202302317","common"
"1135.6000000238419","false","square","80","81,80","circle,triangle,square,diamond,hexagon","C","","","","","test","67","true","1","categorize-html","188","384370","0.0-6.0-134.0","25728","202302317","rare"
"1131.3999999761581","false","circle","80","81,80","circle,triangle,square,diamond,hexagon","A","","","","","test","68","true","1","categorize-html","190","387041","0.0-6.0-136.0","25728","202302317","rare"
"915.9000000357628","false","circle,triangle","81","81,80","circle,triangle,square,diamond,hexagon","A","B","","","","test","69","true","1","categorize-html","192","389487","0.0-6.0-138.0","25728","202302317","common"
"759.1999999880791","false","circle","81","81,80","circle,triangle,square,diamond,hexagon","A","","","","","test","70","true","1","categorize-html","194","391773","0.0-6.0-140.0","25728","202302317","common"
"908.2999999523163","false","square,triangle","80","81,80","circle,triangle,square,diamond,hexagon","C","B","","","","test","71","true","1","categorize-html","196","394204","0.0-6.0-142.0","25728","202302317","rare"
"809.6000000238419","false","triangle,circle","81","81,80","circle,triangle,square,diamond,hexagon","B","A","","","","test","72","true","1","categorize-html","198","396539","0.0-6.0-144.0","25728","202302317","common"
"938.3000000119209","false","square","80","81,80","circle,triangle,square,diamond,hexagon","C","","","","","test","73","true","1","categorize-html","201","400555","0.0-6.0-147.0","25728","202302317","rare"
"358.60000002384186","false","circle","81","81,80","circle,triangle,square,diamond,hexagon","A","","","","","test","74","true","1","categorize-html","203","402443","0.0-6.0-149.0","25728","202302317","common"
"589.9000000357628","false","triangle","81","81,80","circle,triangle,square,diamond,hexagon","B","","","","","test","75","true","1","categorize-html","205","404555","0.0-6.0-151.0","25728","202302317","common"
"475.5","false","square,circle","80","81,80","circle,triangle,square,diamond,hexagon","C","A","","","","test","76","true","1","categorize-html","207","406556","0.0-6.0-153.0","25728","202302317","rare"
"1037.199999988079","false","circle,triangle","81","81,80","circle,triangle,square,diamond,hexagon","A","B","","","","test","77","true","1","categorize-html","209","409123","0.0-6.0-155.0","25728","202302317","common"
"595","false","triangle,square","80","81,80","circle,triangle,square,diamond,hexagon","B","C","","","","test","78","true","1","categorize-html","211","411234","0.0-6.0-157.0","25728","202302317","rare"
"560.3999999761581","false","triangle","81","81,80","circle,triangle,square,diamond,hexagon","B","","","","","test","79","true","1","categorize-html","213","413321","0.0-6.0-159.0","25728","202302317","common"
"749.9000000357628","false","circle,square","80","81,80","circle,triangle,square,diamond,hexagon","A","C","","","","test","80","true","1","categorize-html","215","415604","0.0-6.0-161.0","25728","202302317","rare"
"1290.8999999761581","false","square,triangle","81","81,80","circle,triangle,square,diamond,hexagon","C","B","","","","test","81","true","1","categorize-html","217","418420","0.0-6.0-163.0","25728","202302317","common"
"570.1999999880791","false","square","80","81,80","circle,triangle,square,diamond,hexagon","C","","","","","test","82","true","1","categorize-html","219","420522","0.0-6.0-165.0","25728","202302317","rare"
"526.1000000238419","false","circle","81","81,80","circle,triangle,square,diamond,hexagon","A","","","","","test","83","true","1","categorize-html","221","422584","0.0-6.0-167.0","25728","202302317","common"
"810.9000000357628","false","triangle,circle","81","81,80","circle,triangle,square,diamond,hexagon","B","A","","","","test","84","true","1","categorize-html","223","424923","0.0-6.0-169.0","25728","202302317","common"
"2261.300000011921","false","triangle,square","80","81,80","circle,triangle,square,diamond,hexagon","B","C","","","","test","85","true","1","categorize-html","225","428720","0.0-6.0-171.0","25728","202302317","rare"
"955.6000000238419","false","square,triangle","80","81,80","circle,triangle,square,diamond,hexagon","C","B","","","","test","86","true","1","categorize-html","227","431199","0.0-6.0-173.0","25728","202302317","rare"
"615.1000000238419","false","triangle,circle","81","81,80","circle,triangle,square,diamond,hexagon","B","A","","","","test","87","true","1","categorize-html","229","433340","0.0-6.0-175.0","25728","202302317","common"
"790.4000000357628","false","square","80","81,80","circle,triangle,square,diamond,hexagon","C","","","","","test","88","true","1","categorize-html","231","435653","0.0-6.0-177.0","25728","202302317","rare"
"924.7000000476837","false","circle","81","81,80","circle,triangle,square,diamond,hexagon","A","","","","","test","89","true","1","categorize-html","233","438102","0.0-6.0-179.0","25728","202302317","common"
"665.1000000238419","false","circle,square","80","81,80","circle,triangle,square,diamond,hexagon","A","C","","","","test","90","true","1","categorize-html","235","440297","0.0-6.0-181.0","25728","202302317","rare"
"602.2999999523163","false","circle","81","81,80","circle,triangle,square,diamond,hexagon","A","","","","","test","91","true","1","categorize-html","237","442419","0.0-6.0-183.0","25728","202302317","common"
"543.3000000119209","false","square,circle","80","81,80","circle,triangle,square,diamond,hexagon","C","A","","","","test","92","true","1","categorize-html","239","444489","0.0-6.0-185.0","25728","202302317","rare"
"655.1999999880791","false","square","80","81,80","circle,triangle,square,diamond,hexagon","C","","","","","test","93","true","1","categorize-html","241","446669","0.0-6.0-187.0","25728","202302317","rare"
"710.6000000238419","false","triangle","81","81,80","circle,triangle,square,diamond,hexagon","B","","","","","test","94","true","1","categorize-html","243","448907","0.0-6.0-189.0","25728","202302317","common"
"1711","false","triangle","81","81,80","circle,triangle,square,diamond,hexagon","B","","","","","test","95","true","1","categorize-html","245","452151","0.0-6.0-191.0","25728","202302317","common"
"924.4000000357628","false","circle,triangle","81","81,80","circle,triangle,square,diamond,hexagon","A","B","","","","test","96","true","1","categorize-html","247","454607","0.0-6.0-193.0","25728","202302317","common"
"881","false","circle","81","81,80","circle,triangle,square,diamond,hexagon","A","","","","","test","97","true","1","categorize-html","250","458864","0.0-6.0-196.0","25728","202302317","common"
"726.3999999761581","false","square,circle","80","81,80","circle,triangle,square,diamond,hexagon","C","A","","","","test","98","true","1","categorize-html","252","461104","0.0-6.0-198.0","25728","202302317","rare"
"361.89999997615814","false","circle,square","80","81,80","circle,triangle,square,diamond,hexagon","A","C","","","","test","99","true","1","categorize-html","254","462999","0.0-6.0-200.0","25728","202302317","rare"
"594.5","false","square","80","81,80","circle,triangle,square,diamond,hexagon","C","","","","","test","100","true","1","categorize-html","256","465124","0.0-6.0-202.0","25728","202302317","rare"
"397.7999999523163","false","square","80","81,80","circle,triangle,square,diamond,hexagon","C","","","","","test","101","true","1","categorize-html","258","467055","0.0-6.0-204.0","25728","202302317","rare"
"836.0999999642372","false","circle,triangle","81","81,80","circle,triangle,square,diamond,hexagon","A","B","","","","test","102","true","1","categorize-html","260","469422","0.0-6.0-206.0","25728","202302317","common"
"642.3999999761581","false","square,triangle","80","81,80","circle,triangle,square,diamond,hexagon","C","B","","","","test","103","true","1","categorize-html","262","471589","0.0-6.0-208.0","25728","202302317","rare"
"817.5","false","triangle,square","80","81,80","circle,triangle,square,diamond,hexagon","B","C","","","","test","104","true","1","categorize-html","264","473922","0.0-6.0-210.0","25728","202302317","rare"
"606.6999999880791","false","triangle","81","81,80","circle,triangle,square,diamond,hexagon","B","","","","","test","105","true","1","categorize-html","266","476055","0.0-6.0-212.0","25728","202302317","common"
"603.1999999880791","false","triangle,circle","81","81,80","circle,triangle,square,diamond,hexagon","B","A","","","","test","106","true","1","categorize-html","268","478189","0.0-6.0-214.0","25728","202302317","common"
"944.1000000238419","false","circle","81","81,80","circle,triangle,square,diamond,hexagon","A","","","","","test","107","true","1","categorize-html","270","480671","0.0-6.0-216.0","25728","202302317","common"
"585.3000000119209","false","triangle","81","81,80","circle,triangle,square,diamond,hexagon","B","","","","","test","108","true","1","categorize-html","272","482779","0.0-6.0-218.0","25728","202302317","common"
"435.10000002384186","false","circle,square","80","81,80","circle,triangle,square,diamond,hexagon","A","C","","","","test","109","true","1","categorize-html","274","484737","0.0-6.0-220.0","25728","202302317","rare"
"544.2000000476837","false","triangle","81","81,80","circle,triangle,square,diamond,hexagon","B","","","","","test","110","true","1","categorize-html","276","486806","0.0-6.0-222.0","25728","202302317","common"
"560.5","false","triangle","81","81,80","circle,triangle,square,diamond,hexagon","B","","","","","test","111","true","1","categorize-html","278","488886","0.0-6.0-224.0","25728","202302317","common"
"587.6999999880791","false","square,triangle","80","81,80","circle,triangle,square,diamond,hexagon","C","B","","","","test","112","true","1","categorize-html","280","491004","0.0-6.0-226.0","25728","202302317","rare"
"625.6999999880791","false","circle","81","81,80","circle,triangle,square,diamond,hexagon","A","","","","","test","113","true","1","categorize-html","282","493156","0.0-6.0-228.0","25728","202302317","common"
"514.8999999761581","false","square","80","81,80","circle,triangle,square,diamond,hexagon","C","","","","","test","114","true","1","categorize-html","284","495204","0.0-6.0-230.0","25728","202302317","rare"
"722.6000000238419","false","triangle,square","80","81,80","circle,triangle,square,diamond,hexagon","B","C","","","","test","115","true","1","categorize-html","286","497453","0.0-6.0-232.0","25728","202302317","rare"
"782.8000000119209","false","triangle,circle","81","81,80","circle,triangle,square,diamond,hexagon","B","A","","","","test","116","true","1","categorize-html","288","499772","0.0-6.0-234.0","25728","202302317","common"
"493.69999998807907","false","square","80","81,80","circle,triangle,square,diamond,hexagon","C","","","","","test","117","true","1","categorize-html","290","501787","0.0-6.0-236.0","25728","202302317","rare"
"892.0999999642372","false","circle","81","81,80","circle,triangle,square,diamond,hexagon","A","","","","","test","118","true","1","categorize-html","292","504205","0.0-6.0-238.0","25728","202302317","common"
"776.6000000238419","false","circle,triangle","81","81,80","circle,triangle,square,diamond,hexagon","A","B","","","","test","119","true","1","categorize-html","294","506503","0.0-6.0-240.0","25728","202302317","common"
"506.5999999642372","false","square,circle","80","81,80","circle,triangle,square,diamond,hexagon","C","A","","","","test","120","true","1","categorize-html","296","508537","0.0-6.0-242.0","25728","202302317","rare"
