"rt","correct","stimulus","key_press","keys","symptoms_shuffle","symptom1","symptom2","symptom3","key","category","phase","trial","include","block","trial_type","trial_index","time_elapsed","internal_node_id","ppt","session","abresp"
"3681.899999856949","false","triangle,circle,hexagon","32","81,80","hexagon,triangle,diamond,circle,square","B","D","A","81","common","training","1","true","1","categorize-html","4","148704","0.0-4.0-0.0","24265","202301316","none"
"2981.7000000476837","false","triangle,circle,hexagon","32","81,80","hexagon,triangle,diamond,circle,square","B","D","A","81","common","training","2","true","1","categorize-html","6","152712","0.0-4.0-2.0","24265","202301316","none"
"3220.7999999523163","false","circle,hexagon,triangle","32","81,80","hexagon,triangle,diamond,circle,square","D","A","B","81","common","training","3","true","1","categorize-html","8","156952","0.0-4.0-4.0","24265","202301316","none"
"1924.9000000953674","false","circle,triangle,hexagon","32","81,80","hexagon,triangle,diamond,circle,square","D","B","A","81","common","training","4","true","1","categorize-html","10","159894","0.0-4.0-6.0","24265","202301316","none"
"3601.300000190735","false","square,hexagon,diamond","32","81,80","hexagon,triangle,diamond,circle,square","E","A","C","80","rare","training","5","true","1","categorize-html","12","164507","0.0-4.0-8.0","24265","202301316","none"
"2567.899999856949","false","hexagon,circle,triangle","32","81,80","hexagon,triangle,diamond,circle,square","A","D","B","81","common","training","6","true","1","categorize-html","14","168088","0.0-4.0-10.0","24265","202301316","none"
"2369.7000000476837","false","hexagon,diamond,square","32","81,80","hexagon,triangle,diamond,circle,square","A","C","E","80","rare","training","7","true","1","categorize-html","16","171478","0.0-4.0-12.0","24265","202301316","none"
"3511.399999856949","false","hexagon,triangle,circle","32","81,80","hexagon,triangle,diamond,circle,square","A","B","D","81","common","training","8","true","1","categorize-html","18","176001","0.0-4.0-14.0","24265","202301316","none"
"4561.099999904633","false","hexagon,square,diamond","32","81,80","hexagon,triangle,diamond,circle,square","A","E","C","80","rare","training","9","true","1","categorize-html","20","181585","0.0-4.0-16.0","24265","202301316","none"
"3220.9000000953674","false","diamond,square,hexagon","32","81,80","hexagon,triangle,diamond,circle,square","C","E","A","80","rare","training","10","true","1","categorize-html","22","185824","0.0-4.0-18.0","24265","202301316","none"
"3512.9000000953674","false","hexagon,circle,triangle","32","81,80","hexagon,triangle,diamond,circle,square","A","D","B","81","common","training","11","true","1","categorize-html","24","190361","0.0-4.0-20.0","24265","202301316","none"
"null","false","triangle,hexagon,circle","null","81,80","hexagon,triangle,diamond,circle,square","B","A","D","81","common","training","12","true","1","categorize-html","26","196393","0.0-4.0-22.0","24265","202301316","none"
"1204.5","false","hexagon,triangle,circle","32","81,80","hexagon,triangle,diamond,circle,square","A","B","D","81","common","training","13","true","1","categorize-html","28","198609","0.0-4.0-24.0","24265","202301316","none"
"null","false","square,diamond,hexagon","null","81,80","hexagon,triangle,diamond,circle,square","E","C","A","80","rare","training","14","true","1","categorize-html","30","204639","0.0-4.0-26.0","24265","202301316","none"
"1535.2999999523163","false","hexagon,triangle,circle","32","81,80","hexagon,triangle,diamond,circle,square","A","B","D","81","common","training","15","true","1","categorize-html","32","207185","0.0-4.0-28.0","24265","202301316","none"
"3024.600000143051","false","diamond,hexagon,square","32","81,80","hexagon,triangle,diamond,circle,square","C","A","E","80","rare","training","16","true","1","categorize-html","34","211234","0.0-4.0-30.0","24265","202301316","none"
"2702.0999999046326","false","hexagon,circle,triangle","32","81,80","hexagon,triangle,diamond,circle,square","A","D","B","81","common","training","17","true","1","categorize-html","36","214957","0.0-4.0-32.0","24265","202301316","none"
"3382.0999999046326","false","triangle,hexagon,circle","32","81,80","hexagon,triangle,diamond,circle,square","B","A","D","81","common","training","18","true","1","categorize-html","38","219353","0.0-4.0-34.0","24265","202301316","none"
"2845.7000000476837","false","circle,triangle,hexagon","32","81,80","hexagon,triangle,diamond,circle,square","D","B","A","81","common","training","19","true","1","categorize-html","40","223222","0.0-4.0-36.0","24265","202301316","none"
"3762.199999809265","false","circle,triangle,hexagon","32","81,80","hexagon,triangle,diamond,circle,square","D","B","A","81","common","training","20","true","1","categorize-html","42","228002","0.0-4.0-38.0","24265","202301316","none"
"2928.7000000476837","false","triangle,circle,hexagon","32","81,80","hexagon,triangle,diamond,circle,square","B","D","A","81","common","training","21","true","1","categorize-html","44","231945","0.0-4.0-40.0","24265","202301316","none"
"3807.7000000476837","false","triangle,hexagon,circle","32","81,80","hexagon,triangle,diamond,circle,square","B","A","D","81","common","training","22","true","1","categorize-html","46","236761","0.0-4.0-42.0","24265","202301316","none"
"3322.5999999046326","false","circle,hexagon,triangle","32","81,80","hexagon,triangle,diamond,circle,square","D","A","B","81","common","training","23","true","1","categorize-html","48","241105","0.0-4.0-44.0","24265","202301316","none"
"1911","false","circle,hexagon,triangle","32","81,80","hexagon,triangle,diamond,circle,square","D","A","B","81","common","training","24","true","1","categorize-html","50","244034","0.0-4.0-46.0","24265","202301316","none"
"8188.700000047684","false","hexagon","81","81,80","hexagon,triangle,diamond,circle,square","A","","","","","test","1","true","1","categorize-html","54","290859","0.0-6.0-0.0","24265","202301316","common"
"5520.299999952316","false","diamond,triangle","80","81,80","hexagon,triangle,diamond,circle,square","C","B","","","","test","2","true","1","categorize-html","56","297896","0.0-6.0-2.0","24265","202301316","rare"
"6450","false","triangle,hexagon","81","81,80","hexagon,triangle,diamond,circle,square","B","A","","","","test","3","true","1","categorize-html","58","305867","0.0-6.0-4.0","24265","202301316","common"
"3931.7999999523163","false","diamond","80","81,80","hexagon,triangle,diamond,circle,square","C","","","","","test","4","true","1","categorize-html","60","311324","0.0-6.0-6.0","24265","202301316","rare"
"6161.099999904633","false","hexagon,triangle","81","81,80","hexagon,triangle,diamond,circle,square","A","B","","","","test","5","true","1","categorize-html","62","319011","0.0-6.0-8.0","24265","202301316","common"
"3113.4000000953674","false","hexagon","80","81,80","hexagon,triangle,diamond,circle,square","A","","","","","test","6","true","1","categorize-html","64","323653","0.0-6.0-10.0","24265","202301316","rare"
"4597.400000095367","false","hexagon,diamond","81","81,80","hexagon,triangle,diamond,circle,square","A","C","","","","test","7","true","1","categorize-html","66","329773","0.0-6.0-12.0","24265","202301316","common"
"2654.800000190735","false","triangle","80","81,80","hexagon,triangle,diamond,circle,square","B","","","","","test","8","true","1","categorize-html","68","333950","0.0-6.0-14.0","24265","202301316","rare"
"1637.5","false","diamond","81","81,80","hexagon,triangle,diamond,circle,square","C","","","","","test","9","true","1","categorize-html","70","337099","0.0-6.0-16.0","24265","202301316","common"
"2306","false","triangle,diamond","81","81,80","hexagon,triangle,diamond,circle,square","B","C","","","","test","10","true","1","categorize-html","72","340924","0.0-6.0-18.0","24265","202301316","common"
"2574.2999999523163","false","diamond,hexagon","81","81,80","hexagon,triangle,diamond,circle,square","C","A","","","","test","11","true","1","categorize-html","74","345019","0.0-6.0-20.0","24265","202301316","common"
"2666.600000143051","false","triangle","80","81,80","hexagon,triangle,diamond,circle,square","B","","","","","test","12","true","1","categorize-html","76","349202","0.0-6.0-22.0","24265","202301316","rare"
"1068","false","triangle,diamond","80","81,80","hexagon,triangle,diamond,circle,square","B","C","","","","test","13","true","1","categorize-html","78","351790","0.0-6.0-24.0","24265","202301316","rare"
"1652","false","hexagon,diamond","81","81,80","hexagon,triangle,diamond,circle,square","A","C","","","","test","14","true","1","categorize-html","80","354953","0.0-6.0-26.0","24265","202301316","common"
"4993","false","hexagon","81","81,80","hexagon,triangle,diamond,circle,square","A","","","","","test","15","true","1","categorize-html","82","361454","0.0-6.0-28.0","24265","202301316","common"
"1449","false","diamond,triangle","81","81,80","hexagon,triangle,diamond,circle,square","C","B","","","","test","16","true","1","categorize-html","84","364430","0.0-6.0-30.0","24265","202301316","common"
"1616.2000000476837","false","triangle","81","81,80","hexagon,triangle,diamond,circle,square","B","","","","","test","17","true","1","categorize-html","86","367562","0.0-6.0-32.0","24265","202301316","common"
"3951","false","hexagon,triangle","81","81,80","hexagon,triangle,diamond,circle,square","A","B","","","","test","18","true","1","categorize-html","88","373028","0.0-6.0-34.0","24265","202301316","common"
"2560.9000000953674","false","diamond","81","81,80","hexagon,triangle,diamond,circle,square","C","","","","","test","19","true","1","categorize-html","90","377103","0.0-6.0-36.0","24265","202301316","common"
"1706.1000001430511","false","triangle,hexagon","81","81,80","hexagon,triangle,diamond,circle,square","B","A","","","","test","20","true","1","categorize-html","92","380325","0.0-6.0-38.0","24265","202301316","common"
"1419.2999999523163","false","triangle","81","81,80","hexagon,triangle,diamond,circle,square","B","","","","","test","21","true","1","categorize-html","94","383266","0.0-6.0-40.0","24265","202301316","common"
"1341","false","hexagon","81","81,80","hexagon,triangle,diamond,circle,square","A","","","","","test","22","true","1","categorize-html","96","386124","0.0-6.0-42.0","24265","202301316","common"
"1000.5999999046326","false","diamond,hexagon","81","81,80","hexagon,triangle,diamond,circle,square","C","A","","","","test","23","true","1","categorize-html","98","388637","0.0-6.0-44.0","24265","202301316","common"
"985.3999998569489","false","diamond","81","81,80","hexagon,triangle,diamond,circle,square","C","","","","","test","24","true","1","categorize-html","100","391139","0.0-6.0-46.0","24265","202301316","common"
"1524.2000000476837","false","hexagon,triangle","81","81,80","hexagon,triangle,diamond,circle,square","A","B","","","","test","25","true","1","categorize-html","103","397143","0.0-6.0-49.0","24265","202301316","common"
"2680.399999856949","false","hexagon,diamond","80","81,80","hexagon,triangle,diamond,circle,square","A","C","","","","test","26","true","1","categorize-html","105","401343","0.0-6.0-51.0","24265","202301316","rare"
"1781.4000000953674","false","triangle,hexagon","80","81,80","hexagon,triangle,diamond,circle,square","B","A","","","","test","27","true","1","categorize-html","107","404645","0.0-6.0-53.0","24265","202301316","rare"
"3694.5","false","triangle","81","81,80","hexagon,triangle,diamond,circle,square","B","","","","","test","28","true","1","categorize-html","109","409855","0.0-6.0-55.0","24265","202301316","common"
"736.7000000476837","false","triangle,diamond","81","81,80","hexagon,triangle,diamond,circle,square","B","C","","","","test","29","true","1","categorize-html","111","412110","0.0-6.0-57.0","24265","202301316","common"
"1156.0999999046326","false","diamond","81","81,80","hexagon,triangle,diamond,circle,square","C","","","","","test","30","true","1","categorize-html","113","414788","0.0-6.0-59.0","24265","202301316","common"
"705.2000000476837","false","diamond","81","81,80","hexagon,triangle,diamond,circle,square","C","","","","","test","31","true","1","categorize-html","115","417016","0.0-6.0-61.0","24265","202301316","common"
"1103.6000001430511","false","triangle","80","81,80","hexagon,triangle,diamond,circle,square","B","","","","","test","32","true","1","categorize-html","117","419640","0.0-6.0-63.0","24265","202301316","rare"
"532.7000000476837","false","diamond,triangle","80","81,80","hexagon,triangle,diamond,circle,square","C","B","","","","test","33","true","1","categorize-html","119","421693","0.0-6.0-65.0","24265","202301316","rare"
"838.2000000476837","false","hexagon","81","81,80","hexagon,triangle,diamond,circle,square","A","","","","","test","34","true","1","categorize-html","121","424046","0.0-6.0-67.0","24265","202301316","common"
"670.2000000476837","false","hexagon","81","81,80","hexagon,triangle,diamond,circle,square","A","","","","","test","35","true","1","categorize-html","123","426236","0.0-6.0-69.0","24265","202301316","common"
"800.0999999046326","false","diamond,hexagon","81","81,80","hexagon,triangle,diamond,circle,square","C","A","","","","test","36","true","1","categorize-html","125","428560","0.0-6.0-71.0","24265","202301316","common"
"859.5999999046326","false","diamond,triangle","81","81,80","hexagon,triangle,diamond,circle,square","C","B","","","","test","37","true","1","categorize-html","127","430936","0.0-6.0-73.0","24265","202301316","common"
"793.2000000476837","false","hexagon,triangle","81","81,80","hexagon,triangle,diamond,circle,square","A","B","","","","test","38","true","1","categorize-html","129","433252","0.0-6.0-75.0","24265","202301316","common"
"932.3999998569489","false","triangle","80","81,80","hexagon,triangle,diamond,circle,square","B","","","","","test","39","true","1","categorize-html","131","435695","0.0-6.0-77.0","24265","202301316","rare"
"1256.5","false","diamond","81","81,80","hexagon,triangle,diamond,circle,square","C","","","","","test","40","true","1","categorize-html","133","438468","0.0-6.0-79.0","24265","202301316","common"
"802.9000000953674","false","hexagon,diamond","81","81,80","hexagon,triangle,diamond,circle,square","A","C","","","","test","41","true","1","categorize-html","135","440782","0.0-6.0-81.0","24265","202301316","common"
"830","false","diamond,hexagon","81","81,80","hexagon,triangle,diamond,circle,square","C","A","","","","test","42","true","1","categorize-html","137","443127","0.0-6.0-83.0","24265","202301316","common"
"826.6000001430511","false","triangle","80","81,80","hexagon,triangle,diamond,circle,square","B","","","","","test","43","true","1","categorize-html","139","445468","0.0-6.0-85.0","24265","202301316","rare"
"880.0999999046326","false","diamond","81","81,80","hexagon,triangle,diamond,circle,square","C","","","","","test","44","true","1","categorize-html","141","447862","0.0-6.0-87.0","24265","202301316","common"
"1198.6000001430511","false","hexagon","81","81,80","hexagon,triangle,diamond,circle,square","A","","","","","test","45","true","1","categorize-html","143","450573","0.0-6.0-89.0","24265","202301316","common"
"530.5","false","triangle,diamond","81","81,80","hexagon,triangle,diamond,circle,square","B","C","","","","test","46","true","1","categorize-html","145","452620","0.0-6.0-91.0","24265","202301316","common"
"417.5","false","triangle,hexagon","80","81,80","hexagon,triangle,diamond,circle,square","B","A","","","","test","47","true","1","categorize-html","147","454556","0.0-6.0-93.0","24265","202301316","rare"
"518.0999999046326","false","hexagon","80","81,80","hexagon,triangle,diamond,circle,square","A","","","","","test","48","true","1","categorize-html","149","456589","0.0-6.0-95.0","24265","202301316","rare"
"1467.5","false","hexagon","80","81,80","hexagon,triangle,diamond,circle,square","A","","","","","test","49","true","1","categorize-html","152","461184","0.0-6.0-98.0","24265","202301316","rare"
"1027.5","false","diamond,hexagon","81","81,80","hexagon,triangle,diamond,circle,square","C","A","","","","test","50","true","1","categorize-html","154","463736","0.0-6.0-100.0","24265","202301316","common"
"785.7999999523163","false","diamond","81","81,80","hexagon,triangle,diamond,circle,square","C","","","","","test","51","true","1","categorize-html","156","466049","0.0-6.0-102.0","24265","202301316","common"
"1281.2999999523163","false","triangle","80","81,80","hexagon,triangle,diamond,circle,square","B","","","","","test","52","true","1","categorize-html","158","468858","0.0-6.0-104.0","24265","202301316","rare"
"2099.4000000953674","false","hexagon,triangle","81","81,80","hexagon,triangle,diamond,circle,square","A","B","","","","test","53","true","1","categorize-html","160","472479","0.0-6.0-106.0","24265","202301316","common"
"647.7000000476837","false","hexagon,diamond","81","81,80","hexagon,triangle,diamond,circle,square","A","C","","","","test","54","true","1","categorize-html","162","474639","0.0-6.0-108.0","24265","202301316","common"
"560.2000000476837","false","diamond,triangle","81","81,80","hexagon,triangle,diamond,circle,square","C","B","","","","test","55","true","1","categorize-html","164","476709","0.0-6.0-110.0","24265","202301316","common"
"452.09999990463257","false","triangle,diamond","81","81,80","hexagon,triangle,diamond,circle,square","B","C","","","","test","56","true","1","categorize-html","166","478678","0.0-6.0-112.0","24265","202301316","common"
"660.3999998569489","false","triangle,hexagon","81","81,80","hexagon,triangle,diamond,circle,square","B","A","","","","test","57","true","1","categorize-html","168","480854","0.0-6.0-114.0","24265","202301316","common"
"409.90000009536743","false","triangle","81","81,80","hexagon,triangle,diamond,circle,square","B","","","","","test","58","true","1","categorize-html","170","482773","0.0-6.0-116.0","24265","202301316","common"
"796.9000000953674","false","diamond","80","81,80","hexagon,triangle,diamond,circle,square","C","","","","","test","59","true","1","categorize-html","172","485090","0.0-6.0-118.0","24265","202301316","rare"
"857.7000000476837","false","hexagon","81","81,80","hexagon,triangle,diamond,circle,square","A","","","","","test","60","true","1","categorize-html","174","487472","0.0-6.0-120.0","24265","202301316","common"
"585.2999999523163","false","hexagon,triangle","81","81,80","hexagon,triangle,diamond,circle,square","A","B","","","","test","61","true","1","categorize-html","176","489570","0.0-6.0-122.0","24265","202301316","common"
"1326.5","false","triangle,diamond","81","81,80","hexagon,triangle,diamond,circle,square","B","C","","","","test","62","true","1","categorize-html","178","492416","0.0-6.0-124.0","24265","202301316","common"
"950.8000001907349","false","hexagon","81","81,80","hexagon,triangle,diamond,circle,square","A","","","","","test","63","true","1","categorize-html","180","494887","0.0-6.0-126.0","24265","202301316","common"
"1512","false","triangle","80","81,80","hexagon,triangle,diamond,circle,square","B","","","","","test","64","true","1","categorize-html","182","497909","0.0-6.0-128.0","24265","202301316","rare"
"716.7999999523163","false","hexagon,diamond","81","81,80","hexagon,triangle,diamond,circle,square","A","C","","","","test","65","true","1","categorize-html","184","500143","0.0-6.0-130.0","24265","202301316","common"
"718.6999998092651","false","diamond,triangle","80","81,80","hexagon,triangle,diamond,circle,square","C","B","","","","test","66","true","1","categorize-html","186","502378","0.0-6.0-132.0","24265","202301316","rare"
"577.2000000476837","false","triangle,hexagon","80","81,80","hexagon,triangle,diamond,circle,square","B","A","","","","test","67","true","1","categorize-html","188","504472","0.0-6.0-134.0","24265","202301316","rare"
"624.5","false","diamond,hexagon","81","81,80","hexagon,triangle,diamond,circle,square","C","A","","","","test","68","true","1","categorize-html","190","506609","0.0-6.0-136.0","24265","202301316","common"
"1441.5","false","hexagon","81","81,80","hexagon,triangle,diamond,circle,square","A","","","","","test","69","true","1","categorize-html","192","509567","0.0-6.0-138.0","24265","202301316","common"
"478.2999999523163","false","triangle","80","81,80","hexagon,triangle,diamond,circle,square","B","","","","","test","70","true","1","categorize-html","194","511558","0.0-6.0-140.0","24265","202301316","rare"
"827.7999999523163","false","diamond","81","81,80","hexagon,triangle,diamond,circle,square","C","","","","","test","71","true","1","categorize-html","196","513903","0.0-6.0-142.0","24265","202301316","common"
"801.5","false","diamond","81","81,80","hexagon,triangle,diamond,circle,square","C","","","","","test","72","true","1","categorize-html","198","516227","0.0-6.0-144.0","24265","202301316","common"
"2062.399999856949","false","diamond","80","81,80","hexagon,triangle,diamond,circle,square","C","","","","","test","73","true","1","categorize-html","201","521423","0.0-6.0-147.0","24265","202301316","rare"
"984.2999999523163","false","diamond","80","81,80","hexagon,triangle,diamond,circle,square","C","","","","","test","74","true","1","categorize-html","203","523918","0.0-6.0-149.0","24265","202301316","rare"
"884.9000000953674","false","triangle","81","81,80","hexagon,triangle,diamond,circle,square","B","","","","","test","75","true","1","categorize-html","205","526320","0.0-6.0-151.0","24265","202301316","common"
"1066.1000001430511","false","hexagon","80","81,80","hexagon,triangle,diamond,circle,square","A","","","","","test","76","true","1","categorize-html","207","528899","0.0-6.0-153.0","24265","202301316","rare"
"2681.2000000476837","false","diamond,hexagon","81","81,80","hexagon,triangle,diamond,circle,square","C","A","","","","test","77","true","1","categorize-html","209","533105","0.0-6.0-155.0","24265","202301316","common"
"904.7000000476837","false","triangle,hexagon","81","81,80","hexagon,triangle,diamond,circle,square","B","A","","","","test","78","true","1","categorize-html","211","535521","0.0-6.0-157.0","24265","202301316","common"
"945.2999999523163","false","diamond,triangle","81","81,80","hexagon,triangle,diamond,circle,square","C","B","","","","test","79","true","1","categorize-html","213","537976","0.0-6.0-159.0","24265","202301316","common"
"1019.2999999523163","false","triangle","80","81,80","hexagon,triangle,diamond,circle,square","B","","","","","test","80","true","1","categorize-html","215","540503","0.0-6.0-161.0","24265","202301316","rare"
"1058.9000000953674","false","hexagon,diamond","81","81,80","hexagon,triangle,diamond,circle,square","A","C","","","","test","81","true","1","categorize-html","217","543079","0.0-6.0-163.0","24265","202301316","common"
"1027","false","hexagon","81","81,80","hexagon,triangle,diamond,circle,square","A","","","","","test","82","true","1","categorize-html","219","545623","0.0-6.0-165.0","24265","202301316","common"
"1428.3999998569489","false","triangle,diamond","81","81,80","hexagon,triangle,diamond,circle,square","B","C","","","","test","83","true","1","categorize-html","221","548571","0.0-6.0-167.0","24265","202301316","common"
"1346.5","false","hexagon,triangle","81","81,80","hexagon,triangle,diamond,circle,square","A","B","","","","test","84","true","1","categorize-html","223","551440","0.0-6.0-169.0","24265","202301316","common"
"791.2000000476837","false","diamond,triangle","81","81,80","hexagon,triangle,diamond,circle,square","C","B","","","","test","85","true","1","categorize-html","225","553743","0.0-6.0-171.0","24265","202301316","common"
"664.5","false","hexagon,triangle","81","81,80","hexagon,triangle,diamond,circle,square","A","B","","","","test","86","true","1","categorize-html","227","555922","0.0-6.0-173.0","24265","202301316","common"
"739.1000001430511","false","hexagon,diamond","81","81,80","hexagon,triangle,diamond,circle,square","A","C","","","","test","87","true","1","categorize-html","229","558180","0.0-6.0-175.0","24265","202301316","common"
"527.9000000953674","false","diamond","81","81,80","hexagon,triangle,diamond,circle,square","C","","","","","test","88","true","1","categorize-html","231","560228","0.0-6.0-177.0","24265","202301316","common"
"1711.7000000476837","false","triangle","81","81,80","hexagon,triangle,diamond,circle,square","B","","","","","test","89","true","1","categorize-html","233","563460","0.0-6.0-179.0","24265","202301316","common"
"1437.6999998092651","false","diamond,hexagon","81","81,80","hexagon,triangle,diamond,circle,square","C","A","","","","test","90","true","1","categorize-html","235","566419","0.0-6.0-181.0","24265","202301316","common"
"1694.3000001907349","false","triangle,hexagon","81","81,80","hexagon,triangle,diamond,circle,square","B","A","","","","test","91","true","1","categorize-html","237","569636","0.0-6.0-183.0","24265","202301316","common"
"1894.0999999046326","false","diamond","80","81,80","hexagon,triangle,diamond,circle,square","C","","","","","test","92","true","1","categorize-html","239","573048","0.0-6.0-185.0","24265","202301316","rare"
"1880.1999998092651","false","hexagon","81","81,80","hexagon,triangle,diamond,circle,square","A","","","","","test","93","true","1","categorize-html","241","576444","0.0-6.0-187.0","24265","202301316","common"
"1440.3000001907349","false","triangle,diamond","81","81,80","hexagon,triangle,diamond,circle,square","B","C","","","","test","94","true","1","categorize-html","243","579409","0.0-6.0-189.0","24265","202301316","common"
"1187","false","triangle","80","81,80","hexagon,triangle,diamond,circle,square","B","","","","","test","95","true","1","categorize-html","245","582108","0.0-6.0-191.0","24265","202301316","rare"
"1479.5999999046326","false","hexagon","80","81,80","hexagon,triangle,diamond,circle,square","A","","","","","test","96","true","1","categorize-html","247","585109","0.0-6.0-193.0","24265","202301316","rare"
"1276.0999999046326","false","diamond","80","81,80","hexagon,triangle,diamond,circle,square","C","","","","","test","97","true","1","categorize-html","250","588980","0.0-6.0-196.0","24265","202301316","rare"
"824.6000001430511","false","hexagon","80","81,80","hexagon,triangle,diamond,circle,square","A","","","","","test","98","true","1","categorize-html","252","591321","0.0-6.0-198.0","24265","202301316","rare"
"828.7000000476837","false","diamond","80","81,80","hexagon,triangle,diamond,circle,square","C","","","","","test","99","true","1","categorize-html","254","593665","0.0-6.0-200.0","24265","202301316","rare"
"2654","false","diamond,hexagon","81","81,80","hexagon,triangle,diamond,circle,square","C","A","","","","test","100","true","1","categorize-html","256","597836","0.0-6.0-202.0","24265","202301316","common"
"2043.5","false","triangle","80","81,80","hexagon,triangle,diamond,circle,square","B","","","","","test","101","true","1","categorize-html","258","601405","0.0-6.0-204.0","24265","202301316","rare"
"3423.600000143051","false","triangle","81","81,80","hexagon,triangle,diamond,circle,square","B","","","","","test","102","true","1","categorize-html","260","606350","0.0-6.0-206.0","24265","202301316","common"
"1604.0999999046326","false","triangle,hexagon","81","81,80","hexagon,triangle,diamond,circle,square","B","A","","","","test","103","true","1","categorize-html","262","609475","0.0-6.0-208.0","24265","202301316","common"
"3306.5999999046326","false","hexagon","80","81,80","hexagon,triangle,diamond,circle,square","A","","","","","test","104","true","1","categorize-html","264","614300","0.0-6.0-210.0","24265","202301316","rare"
"1523.0999999046326","false","hexagon,triangle","81","81,80","hexagon,triangle,diamond,circle,square","A","B","","","","test","105","true","1","categorize-html","266","617333","0.0-6.0-212.0","24265","202301316","common"
"1351.6000001430511","false","triangle,diamond","81","81,80","hexagon,triangle,diamond,circle,square","B","C","","","","test","106","true","1","categorize-html","268","620204","0.0-6.0-214.0","24265","202301316","common"
"1064.6999998092651","false","hexagon,diamond","81","81,80","hexagon,triangle,diamond,circle,square","A","C","","","","test","107","true","1","categorize-html","270","622781","0.0-6.0-216.0","24265","202301316","common"
"3544.600000143051","false","diamond,triangle","81","81,80","hexagon,triangle,diamond,circle,square","C","B","","","","test","108","true","1","categorize-html","272","627846","0.0-6.0-218.0","24265","202301316","common"
"3837.199999809265","false","hexagon,diamond","81","81,80","hexagon,triangle,diamond,circle,square","A","C","","","","test","109","true","1","categorize-html","274","633204","0.0-6.0-220.0","24265","202301316","common"
"1062.1999998092651","false","hexagon","81","81,80","hexagon,triangle,diamond,circle,square","A","","","","","test","110","true","1","categorize-html","276","635779","0.0-6.0-222.0","24265","202301316","common"
"4015.0999999046326","false","diamond,triangle","81","81,80","hexagon,triangle,diamond,circle,square","C","B","","","","test","111","true","1","categorize-html","278","641310","0.0-6.0-224.0","24265","202301316","common"
"1258.7999999523163","false","diamond,hexagon","81","81,80","hexagon,triangle,diamond,circle,square","C","A","","","","test","112","true","1","categorize-html","280","644085","0.0-6.0-226.0","24265","202301316","common"
"864.7000000476837","false","triangle,hexagon","81","81,80","hexagon,triangle,diamond,circle,square","B","A","","","","test","113","true","1","categorize-html","282","646466","0.0-6.0-228.0","24265","202301316","common"
"1580.8000001907349","false","hexagon","81","81,80","hexagon,triangle,diamond,circle,square","A","","","","","test","114","true","1","categorize-html","284","649555","0.0-6.0-230.0","24265","202301316","common"
"1384.5","false","diamond","80","81,80","hexagon,triangle,diamond,circle,square","C","","","","","test","115","true","1","categorize-html","286","652454","0.0-6.0-232.0","24265","202301316","rare"
"2333","false","hexagon,triangle","80","81,80","hexagon,triangle,diamond,circle,square","A","B","","","","test","116","true","1","categorize-html","288","656310","0.0-6.0-234.0","24265","202301316","rare"
"1556.2000000476837","false","triangle","81","81,80","hexagon,triangle,diamond,circle,square","B","","","","","test","117","true","1","categorize-html","290","659391","0.0-6.0-236.0","24265","202301316","common"
"1195","false","triangle","81","81,80","hexagon,triangle,diamond,circle,square","B","","","","","test","118","true","1","categorize-html","292","662107","0.0-6.0-238.0","24265","202301316","common"
"894.9000000953674","false","triangle,diamond","80","81,80","hexagon,triangle,diamond,circle,square","B","C","","","","test","119","true","1","categorize-html","294","664516","0.0-6.0-240.0","24265","202301316","rare"
"1467","false","diamond","80","81,80","hexagon,triangle,diamond,circle,square","C","","","","","test","120","true","1","categorize-html","296","667503","0.0-6.0-242.0","24265","202301316","rare"
