"rt","correct","stimulus","key_press","keys","symptoms_shuffle","symptom1","symptom2","symptom3","key","category","phase","trial","include","block","trial_type","trial_index","time_elapsed","internal_node_id","ppt","session","abresp"
"null","false","circle,hexagon,square","null","81,80","square,hexagon,triangle,circle,diamond","D","B","A","81","common","training","1","true","1","categorize-html","4","167361","0.0-4.0-0.0","25401","20230235","none"
"null","false","square,circle,hexagon","null","81,80","square,hexagon,triangle,circle,diamond","A","D","B","81","common","training","2","true","1","categorize-html","6","173365","0.0-4.0-2.0","25401","20230235","none"
"2393","false","circle,hexagon,square","32","81,80","square,hexagon,triangle,circle,diamond","D","B","A","81","common","training","3","true","1","categorize-html","8","176762","0.0-4.0-4.0","25401","20230235","none"
"1820","false","square,circle,hexagon","32","81,80","square,hexagon,triangle,circle,diamond","A","D","B","81","common","training","4","true","1","categorize-html","10","179585","0.0-4.0-6.0","25401","20230235","none"
"2007.000000000029","false","square,diamond,triangle","32","81,80","square,hexagon,triangle,circle,diamond","A","E","C","80","rare","training","5","true","1","categorize-html","12","182596","0.0-4.0-8.0","25401","20230235","none"
"2022","false","circle,square,hexagon","32","81,80","square,hexagon,triangle,circle,diamond","D","A","B","81","common","training","6","true","1","categorize-html","14","185621","0.0-4.0-10.0","25401","20230235","none"
"1651","false","diamond,square,triangle","32","81,80","square,hexagon,triangle,circle,diamond","E","A","C","80","rare","training","7","true","1","categorize-html","16","188276","0.0-4.0-12.0","25401","20230235","none"
"2254","false","hexagon,circle,square","32","81,80","square,hexagon,triangle,circle,diamond","B","D","A","81","common","training","8","true","1","categorize-html","18","191533","0.0-4.0-14.0","25401","20230235","none"
"1436","false","triangle,square,diamond","32","81,80","square,hexagon,triangle,circle,diamond","C","A","E","80","rare","training","9","true","1","categorize-html","20","193973","0.0-4.0-16.0","25401","20230235","none"
"1085.999999999971","false","triangle,diamond,square","32","81,80","square,hexagon,triangle,circle,diamond","C","E","A","80","rare","training","10","true","1","categorize-html","22","196061","0.0-4.0-18.0","25401","20230235","none"
"844.9999999999709","false","square,triangle,diamond","32","81,80","square,hexagon,triangle,circle,diamond","A","C","E","80","rare","training","11","true","1","categorize-html","24","197909","0.0-4.0-20.0","25401","20230235","none"
"1766","false","diamond,triangle,square","32","81,80","square,hexagon,triangle,circle,diamond","E","C","A","80","rare","training","12","true","1","categorize-html","26","200678","0.0-4.0-22.0","25401","20230235","none"
"1870","false","square,hexagon,circle","32","81,80","square,hexagon,triangle,circle,diamond","A","B","D","81","common","training","13","true","1","categorize-html","28","203550","0.0-4.0-24.0","25401","20230235","none"
"1678","false","hexagon,circle,square","32","81,80","square,hexagon,triangle,circle,diamond","B","D","A","81","common","training","14","true","1","categorize-html","30","206231","0.0-4.0-26.0","25401","20230235","none"
"2624","false","hexagon,square,circle","32","81,80","square,hexagon,triangle,circle,diamond","B","A","D","81","common","training","15","true","1","categorize-html","32","209859","0.0-4.0-28.0","25401","20230235","none"
"1734.999999999971","false","circle,square,hexagon","32","81,80","square,hexagon,triangle,circle,diamond","D","A","B","81","common","training","16","true","1","categorize-html","34","212597","0.0-4.0-30.0","25401","20230235","none"
"2808.999999999971","false","hexagon,square,circle","32","81,80","square,hexagon,triangle,circle,diamond","B","A","D","81","common","training","17","true","1","categorize-html","36","216410","0.0-4.0-32.0","25401","20230235","none"
"1873","false","square,hexagon,circle","32","81,80","square,hexagon,triangle,circle,diamond","A","B","D","81","common","training","18","true","1","categorize-html","38","219286","0.0-4.0-34.0","25401","20230235","none"
"1781","false","square,circle,hexagon","32","81,80","square,hexagon,triangle,circle,diamond","A","D","B","81","common","training","19","true","1","categorize-html","40","222071","0.0-4.0-36.0","25401","20230235","none"
"1253","false","hexagon,circle,square","32","81,80","square,hexagon,triangle,circle,diamond","B","D","A","81","common","training","20","true","1","categorize-html","42","224326","0.0-4.0-38.0","25401","20230235","none"
"1546","false","hexagon,square,circle","32","81,80","square,hexagon,triangle,circle,diamond","B","A","D","81","common","training","21","true","1","categorize-html","44","226876","0.0-4.0-40.0","25401","20230235","none"
"1894.999999999971","false","square,hexagon,circle","32","81,80","square,hexagon,triangle,circle,diamond","A","B","D","81","common","training","22","true","1","categorize-html","46","229774","0.0-4.0-42.0","25401","20230235","none"
"1073","false","circle,hexagon,square","32","81,80","square,hexagon,triangle,circle,diamond","D","B","A","81","common","training","23","true","1","categorize-html","48","231850","0.0-4.0-44.0","25401","20230235","none"
"728","false","circle,square,hexagon","32","81,80","square,hexagon,triangle,circle,diamond","D","A","B","81","common","training","24","true","1","categorize-html","50","233583","0.0-4.0-46.0","25401","20230235","none"
"2735.000000000029","false","hexagon,square,circle","32","81,80","square,hexagon,triangle,circle,diamond","B","A","D","81","common","training","25","true","2","categorize-html","53","254028","0.0-4.0-49.0","25401","20230235","none"
"2554.000000000029","false","hexagon,square,circle","32","81,80","square,hexagon,triangle,circle,diamond","B","A","D","81","common","training","26","true","2","categorize-html","55","257585","0.0-4.0-51.0","25401","20230235","none"
"921.9999999999709","false","hexagon,circle,square","32","81,80","square,hexagon,triangle,circle,diamond","B","D","A","81","common","training","27","true","2","categorize-html","57","259511","0.0-4.0-53.0","25401","20230235","none"
"586.9999999999709","false","circle,square,hexagon","32","81,80","square,hexagon,triangle,circle,diamond","D","A","B","81","common","training","28","true","2","categorize-html","59","261102","0.0-4.0-55.0","25401","20230235","none"
"1959","false","square,circle,hexagon","32","81,80","square,hexagon,triangle,circle,diamond","A","D","B","81","common","training","29","true","2","categorize-html","61","264065","0.0-4.0-57.0","25401","20230235","none"
"339","false","square,hexagon,circle","32","81,80","square,hexagon,triangle,circle,diamond","A","B","D","81","common","training","30","true","2","categorize-html","63","265408","0.0-4.0-59.0","25401","20230235","none"
"354","false","circle,hexagon,square","32","81,80","square,hexagon,triangle,circle,diamond","D","B","A","81","common","training","31","true","2","categorize-html","65","266765","0.0-4.0-61.0","25401","20230235","none"
"1106.0000000000582","false","triangle,square,diamond","32","81,80","square,hexagon,triangle,circle,diamond","C","A","E","80","rare","training","32","true","2","categorize-html","67","268875","0.0-4.0-63.0","25401","20230235","none"
"828","false","square,diamond,triangle","32","81,80","square,hexagon,triangle,circle,diamond","A","E","C","80","rare","training","33","true","2","categorize-html","69","270706","0.0-4.0-65.0","25401","20230235","none"
"768","false","square,circle,hexagon","32","81,80","square,hexagon,triangle,circle,diamond","A","D","B","81","common","training","34","true","2","categorize-html","71","272478","0.0-4.0-67.0","25401","20230235","none"
"962","false","circle,hexagon,square","32","81,80","square,hexagon,triangle,circle,diamond","D","B","A","81","common","training","35","true","2","categorize-html","73","274443","0.0-4.0-69.0","25401","20230235","none"
"912.9999999999418","false","circle,square,hexagon","32","81,80","square,hexagon,triangle,circle,diamond","D","A","B","81","common","training","36","true","2","categorize-html","75","276359","0.0-4.0-71.0","25401","20230235","none"
"770.9999999999418","false","diamond,triangle,square","32","81,80","square,hexagon,triangle,circle,diamond","E","C","A","80","rare","training","37","true","2","categorize-html","77","278133","0.0-4.0-73.0","25401","20230235","none"
"1025.9999999999418","false","circle,hexagon,square","32","81,80","square,hexagon,triangle,circle,diamond","D","B","A","81","common","training","38","true","2","categorize-html","79","280163","0.0-4.0-75.0","25401","20230235","none"
"761","false","circle,square,hexagon","32","81,80","square,hexagon,triangle,circle,diamond","D","A","B","81","common","training","39","true","2","categorize-html","81","281927","0.0-4.0-77.0","25401","20230235","none"
"833","false","hexagon,circle,square","32","81,80","square,hexagon,triangle,circle,diamond","B","D","A","81","common","training","40","true","2","categorize-html","83","283764","0.0-4.0-79.0","25401","20230235","none"
"773","false","square,triangle,diamond","32","81,80","square,hexagon,triangle,circle,diamond","A","C","E","80","rare","training","41","true","2","categorize-html","85","285541","0.0-4.0-81.0","25401","20230235","none"
"761","false","square,circle,hexagon","32","81,80","square,hexagon,triangle,circle,diamond","A","D","B","81","common","training","42","true","2","categorize-html","87","287306","0.0-4.0-83.0","25401","20230235","none"
"688","false","hexagon,circle,square","32","81,80","square,hexagon,triangle,circle,diamond","B","D","A","81","common","training","43","true","2","categorize-html","89","288998","0.0-4.0-85.0","25401","20230235","none"
"866","false","diamond,square,triangle","32","81,80","square,hexagon,triangle,circle,diamond","E","A","C","80","rare","training","44","true","2","categorize-html","91","290868","0.0-4.0-87.0","25401","20230235","none"
"796","false","hexagon,square,circle","32","81,80","square,hexagon,triangle,circle,diamond","B","A","D","81","common","training","45","true","2","categorize-html","93","292667","0.0-4.0-89.0","25401","20230235","none"
"854","false","triangle,diamond,square","32","81,80","square,hexagon,triangle,circle,diamond","C","E","A","80","rare","training","46","true","2","categorize-html","95","294525","0.0-4.0-91.0","25401","20230235","none"
"1083.0000000000582","false","square,hexagon,circle","32","81,80","square,hexagon,triangle,circle,diamond","A","B","D","81","common","training","47","true","2","categorize-html","97","296611","0.0-4.0-93.0","25401","20230235","none"
"899","false","square,hexagon,circle","32","81,80","square,hexagon,triangle,circle,diamond","A","B","D","81","common","training","48","true","2","categorize-html","99","298513","0.0-4.0-95.0","25401","20230235","none"
"3958","false","triangle,hexagon","80","81,80","square,hexagon,triangle,circle,diamond","C","B","","","","test","1","true","1","categorize-html","103","364672","0.0-6.0-0.0","25401","20230235","rare"
"1326","false","square,hexagon","81","81,80","square,hexagon,triangle,circle,diamond","A","B","","","","test","2","true","1","categorize-html","105","367502","0.0-6.0-2.0","25401","20230235","common"
"2411","false","square,triangle","80","81,80","square,hexagon,triangle,circle,diamond","A","C","","","","test","3","true","1","categorize-html","107","371416","0.0-6.0-4.0","25401","20230235","rare"
"2634","false","square","81","81,80","square,hexagon,triangle,circle,diamond","A","","","","","test","4","true","1","categorize-html","109","375554","0.0-6.0-6.0","25401","20230235","common"
"1612","false","triangle","81","81,80","square,hexagon,triangle,circle,diamond","C","","","","","test","5","true","1","categorize-html","111","378669","0.0-6.0-8.0","25401","20230235","common"
"805.0000000000582","false","square","81","81,80","square,hexagon,triangle,circle,diamond","A","","","","","test","6","true","1","categorize-html","113","380978","0.0-6.0-10.0","25401","20230235","common"
"2401","false","triangle,square","80","81,80","square,hexagon,triangle,circle,diamond","C","A","","","","test","7","true","1","categorize-html","115","384882","0.0-6.0-12.0","25401","20230235","rare"
"908","false","hexagon","81","81,80","square,hexagon,triangle,circle,diamond","B","","","","","test","8","true","1","categorize-html","117","387293","0.0-6.0-14.0","25401","20230235","common"
"843","false","hexagon,square","81","81,80","square,hexagon,triangle,circle,diamond","B","A","","","","test","9","true","1","categorize-html","119","389639","0.0-6.0-16.0","25401","20230235","common"
"784","false","triangle","80","81,80","square,hexagon,triangle,circle,diamond","C","","","","","test","10","true","1","categorize-html","121","391926","0.0-6.0-18.0","25401","20230235","rare"
"1206.9999999999418","false","hexagon","80","81,80","square,hexagon,triangle,circle,diamond","B","","","","","test","11","true","1","categorize-html","123","394636","0.0-6.0-20.0","25401","20230235","rare"
"1730","false","hexagon,triangle","80","81,80","square,hexagon,triangle,circle,diamond","B","C","","","","test","12","true","1","categorize-html","125","397870","0.0-6.0-22.0","25401","20230235","rare"
"996","false","triangle","81","81,80","square,hexagon,triangle,circle,diamond","C","","","","","test","13","true","1","categorize-html","127","400370","0.0-6.0-24.0","25401","20230235","common"
"708","false","triangle,hexagon","80","81,80","square,hexagon,triangle,circle,diamond","C","B","","","","test","14","true","1","categorize-html","129","402581","0.0-6.0-26.0","25401","20230235","rare"
"541","false","square,hexagon","81","81,80","square,hexagon,triangle,circle,diamond","A","B","","","","test","15","true","1","categorize-html","131","404627","0.0-6.0-28.0","25401","20230235","common"
"665.9999999999418","false","square","81","81,80","square,hexagon,triangle,circle,diamond","A","","","","","test","16","true","1","categorize-html","133","406796","0.0-6.0-30.0","25401","20230235","common"
"568.0000000000582","false","square,triangle","80","81,80","square,hexagon,triangle,circle,diamond","A","C","","","","test","17","true","1","categorize-html","135","408868","0.0-6.0-32.0","25401","20230235","rare"
"972.0000000000582","false","square","81","81,80","square,hexagon,triangle,circle,diamond","A","","","","","test","18","true","1","categorize-html","137","411344","0.0-6.0-34.0","25401","20230235","common"
"669","false","hexagon","81","81,80","square,hexagon,triangle,circle,diamond","B","","","","","test","19","true","1","categorize-html","139","413516","0.0-6.0-36.0","25401","20230235","common"
"733","false","hexagon,triangle","81","81,80","square,hexagon,triangle,circle,diamond","B","C","","","","test","20","true","1","categorize-html","141","415751","0.0-6.0-38.0","25401","20230235","common"
"762","false","hexagon,square","81","81,80","square,hexagon,triangle,circle,diamond","B","A","","","","test","21","true","1","categorize-html","143","418016","0.0-6.0-40.0","25401","20230235","common"
"529","false","triangle,square","80","81,80","square,hexagon,triangle,circle,diamond","C","A","","","","test","22","true","1","categorize-html","145","420049","0.0-6.0-42.0","25401","20230235","rare"
"793.9999999999418","false","hexagon","81","81,80","square,hexagon,triangle,circle,diamond","B","","","","","test","23","true","1","categorize-html","147","422347","0.0-6.0-44.0","25401","20230235","common"
"794.9999999999418","false","triangle","80","81,80","square,hexagon,triangle,circle,diamond","C","","","","","test","24","true","1","categorize-html","149","424646","0.0-6.0-46.0","25401","20230235","rare"
"1295.0000000000582","false","square,hexagon","81","81,80","square,hexagon,triangle,circle,diamond","A","B","","","","test","25","true","1","categorize-html","152","431803","0.0-6.0-49.0","25401","20230235","common"
"652","false","triangle,square","80","81,80","square,hexagon,triangle,circle,diamond","C","A","","","","test","26","true","1","categorize-html","154","433958","0.0-6.0-51.0","25401","20230235","rare"
"537","false","hexagon","81","81,80","square,hexagon,triangle,circle,diamond","B","","","","","test","27","true","1","categorize-html","156","435998","0.0-6.0-53.0","25401","20230235","common"
"587","false","square,triangle","80","81,80","square,hexagon,triangle,circle,diamond","A","C","","","","test","28","true","1","categorize-html","158","438089","0.0-6.0-55.0","25401","20230235","rare"
"620","false","hexagon,triangle","81","81,80","square,hexagon,triangle,circle,diamond","B","C","","","","test","29","true","1","categorize-html","160","440213","0.0-6.0-57.0","25401","20230235","common"
"617","false","triangle","81","81,80","square,hexagon,triangle,circle,diamond","C","","","","","test","30","true","1","categorize-html","162","442333","0.0-6.0-59.0","25401","20230235","common"
"652","false","square","81","81,80","square,hexagon,triangle,circle,diamond","A","","","","","test","31","true","1","categorize-html","164","444489","0.0-6.0-61.0","25401","20230235","common"
"509","false","hexagon,square","80","81,80","square,hexagon,triangle,circle,diamond","B","A","","","","test","32","true","1","categorize-html","166","446502","0.0-6.0-63.0","25401","20230235","rare"
"595","false","triangle,hexagon","80","81,80","square,hexagon,triangle,circle,diamond","C","B","","","","test","33","true","1","categorize-html","168","448600","0.0-6.0-65.0","25401","20230235","rare"
"259.9999999999418","false","triangle","81","81,80","square,hexagon,triangle,circle,diamond","C","","","","","test","34","true","1","categorize-html","170","450364","0.0-6.0-67.0","25401","20230235","common"
"622","false","square","81","81,80","square,hexagon,triangle,circle,diamond","A","","","","","test","35","true","1","categorize-html","172","452490","0.0-6.0-69.0","25401","20230235","common"
"421","false","hexagon","80","81,80","square,hexagon,triangle,circle,diamond","B","","","","","test","36","true","1","categorize-html","174","454415","0.0-6.0-71.0","25401","20230235","rare"
"963","false","triangle","80","81,80","square,hexagon,triangle,circle,diamond","C","","","","","test","37","true","1","categorize-html","176","456882","0.0-6.0-73.0","25401","20230235","rare"
"358.9999999999418","false","square","81","81,80","square,hexagon,triangle,circle,diamond","A","","","","","test","38","true","1","categorize-html","178","458744","0.0-6.0-75.0","25401","20230235","common"
"294","false","triangle,square","80","81,80","square,hexagon,triangle,circle,diamond","C","A","","","","test","39","true","1","categorize-html","180","460541","0.0-6.0-77.0","25401","20230235","rare"
"623","false","hexagon,square","81","81,80","square,hexagon,triangle,circle,diamond","B","A","","","","test","40","true","1","categorize-html","182","462667","0.0-6.0-79.0","25401","20230235","common"
"479","false","hexagon","81","81,80","square,hexagon,triangle,circle,diamond","B","","","","","test","41","true","1","categorize-html","184","464648","0.0-6.0-81.0","25401","20230235","common"
"533.9999999999418","false","square,hexagon","80","81,80","square,hexagon,triangle,circle,diamond","A","B","","","","test","42","true","1","categorize-html","186","466686","0.0-6.0-83.0","25401","20230235","rare"
"312","false","hexagon","81","81,80","square,hexagon,triangle,circle,diamond","B","","","","","test","43","true","1","categorize-html","188","468502","0.0-6.0-85.0","25401","20230235","common"
"390","false","triangle,hexagon","81","81,80","square,hexagon,triangle,circle,diamond","C","B","","","","test","44","true","1","categorize-html","190","470396","0.0-6.0-87.0","25401","20230235","common"
"521.0000000000582","false","hexagon,triangle","80","81,80","square,hexagon,triangle,circle,diamond","B","C","","","","test","45","true","1","categorize-html","192","472421","0.0-6.0-89.0","25401","20230235","rare"
"569","false","square,triangle","80","81,80","square,hexagon,triangle,circle,diamond","A","C","","","","test","46","true","1","categorize-html","194","474493","0.0-6.0-91.0","25401","20230235","rare"
"626.0000000000582","false","square","81","81,80","square,hexagon,triangle,circle,diamond","A","","","","","test","47","true","1","categorize-html","196","476622","0.0-6.0-93.0","25401","20230235","common"
"694","false","triangle","80","81,80","square,hexagon,triangle,circle,diamond","C","","","","","test","48","true","1","categorize-html","198","478820","0.0-6.0-95.0","25401","20230235","rare"
"774","false","triangle,hexagon","81","81,80","square,hexagon,triangle,circle,diamond","C","B","","","","test","49","true","1","categorize-html","201","483838","0.0-6.0-98.0","25401","20230235","common"
"711","false","square,triangle","81","81,80","square,hexagon,triangle,circle,diamond","A","C","","","","test","50","true","1","categorize-html","203","486052","0.0-6.0-100.0","25401","20230235","common"
"853","false","triangle,square","80","81,80","square,hexagon,triangle,circle,diamond","C","A","","","","test","51","true","1","categorize-html","205","488409","0.0-6.0-102.0","25401","20230235","rare"
"1087","false","square,hexagon","81","81,80","square,hexagon,triangle,circle,diamond","A","B","","","","test","52","true","1","categorize-html","207","491000","0.0-6.0-104.0","25401","20230235","common"
"845","false","triangle","80","81,80","square,hexagon,triangle,circle,diamond","C","","","","","test","53","true","1","categorize-html","209","493349","0.0-6.0-106.0","25401","20230235","rare"
"770","false","square","81","81,80","square,hexagon,triangle,circle,diamond","A","","","","","test","54","true","1","categorize-html","211","495623","0.0-6.0-108.0","25401","20230235","common"
"1184.0000000000582","false","triangle","80","81,80","square,hexagon,triangle,circle,diamond","C","","","","","test","55","true","1","categorize-html","213","498311","0.0-6.0-110.0","25401","20230235","rare"
"454","false","square","81","81,80","square,hexagon,triangle,circle,diamond","A","","","","","test","56","true","1","categorize-html","215","500270","0.0-6.0-112.0","25401","20230235","common"
"800.0000000000582","false","hexagon","81","81,80","square,hexagon,triangle,circle,diamond","B","","","","","test","57","true","1","categorize-html","217","502572","0.0-6.0-114.0","25401","20230235","common"
"962","false","hexagon","80","81,80","square,hexagon,triangle,circle,diamond","B","","","","","test","58","true","1","categorize-html","219","505037","0.0-6.0-116.0","25401","20230235","rare"
"910","false","hexagon,triangle","80","81,80","square,hexagon,triangle,circle,diamond","B","C","","","","test","59","true","1","categorize-html","221","507450","0.0-6.0-118.0","25401","20230235","rare"
"467","false","hexagon,square","81","81,80","square,hexagon,triangle,circle,diamond","B","A","","","","test","60","true","1","categorize-html","223","509420","0.0-6.0-120.0","25401","20230235","common"
"759.9999999999418","false","square","81","81,80","square,hexagon,triangle,circle,diamond","A","","","","","test","61","true","1","categorize-html","225","511684","0.0-6.0-122.0","25401","20230235","common"
"1005","false","hexagon","81","81,80","square,hexagon,triangle,circle,diamond","B","","","","","test","62","true","1","categorize-html","227","514192","0.0-6.0-124.0","25401","20230235","common"
"758.9999999998836","false","triangle","80","81,80","square,hexagon,triangle,circle,diamond","C","","","","","test","63","true","1","categorize-html","229","516455","0.0-6.0-126.0","25401","20230235","rare"
"950","false","hexagon,triangle","80","81,80","square,hexagon,triangle,circle,diamond","B","C","","","","test","64","true","1","categorize-html","231","518909","0.0-6.0-128.0","25401","20230235","rare"
"356.9999999999418","false","triangle","81","81,80","square,hexagon,triangle,circle,diamond","C","","","","","test","65","true","1","categorize-html","233","520770","0.0-6.0-130.0","25401","20230235","common"
"509.9999999999418","false","square,hexagon","81","81,80","square,hexagon,triangle,circle,diamond","A","B","","","","test","66","true","1","categorize-html","235","522784","0.0-6.0-132.0","25401","20230235","common"
"534.9999999998836","false","triangle,square","80","81,80","square,hexagon,triangle,circle,diamond","C","A","","","","test","67","true","1","categorize-html","237","524822","0.0-6.0-134.0","25401","20230235","rare"
"539","false","hexagon,square","80","81,80","square,hexagon,triangle,circle,diamond","B","A","","","","test","68","true","1","categorize-html","239","526864","0.0-6.0-136.0","25401","20230235","rare"
"688","false","hexagon","81","81,80","square,hexagon,triangle,circle,diamond","B","","","","","test","69","true","1","categorize-html","241","529055","0.0-6.0-138.0","25401","20230235","common"
"612","false","square","81","81,80","square,hexagon,triangle,circle,diamond","A","","","","","test","70","true","1","categorize-html","243","531170","0.0-6.0-140.0","25401","20230235","common"
"2269","false","triangle,hexagon","80","81,80","square,hexagon,triangle,circle,diamond","C","B","","","","test","71","true","1","categorize-html","245","534942","0.0-6.0-142.0","25401","20230235","rare"
"699","false","square,triangle","81","81,80","square,hexagon,triangle,circle,diamond","A","C","","","","test","72","true","1","categorize-html","247","537143","0.0-6.0-144.0","25401","20230235","common"
"932","false","square","81","81,80","square,hexagon,triangle,circle,diamond","A","","","","","test","73","true","1","categorize-html","250","544804","0.0-6.0-147.0","25401","20230235","common"
"468","false","hexagon","80","81,80","square,hexagon,triangle,circle,diamond","B","","","","","test","74","true","1","categorize-html","252","546775","0.0-6.0-149.0","25401","20230235","rare"
"481","false","triangle,hexagon","81","81,80","square,hexagon,triangle,circle,diamond","C","B","","","","test","75","true","1","categorize-html","254","548760","0.0-6.0-151.0","25401","20230235","common"
"519","false","triangle,square","80","81,80","square,hexagon,triangle,circle,diamond","C","A","","","","test","76","true","1","categorize-html","256","550783","0.0-6.0-153.0","25401","20230235","rare"
"626","false","triangle","81","81,80","square,hexagon,triangle,circle,diamond","C","","","","","test","77","true","1","categorize-html","258","552912","0.0-6.0-155.0","25401","20230235","common"
"381.9999999998836","false","square,triangle","80","81,80","square,hexagon,triangle,circle,diamond","A","C","","","","test","78","true","1","categorize-html","260","554798","0.0-6.0-157.0","25401","20230235","rare"
"401","false","square","80","81,80","square,hexagon,triangle,circle,diamond","A","","","","","test","79","true","1","categorize-html","262","556702","0.0-6.0-159.0","25401","20230235","rare"
"596","false","square,hexagon","81","81,80","square,hexagon,triangle,circle,diamond","A","B","","","","test","80","true","1","categorize-html","264","558802","0.0-6.0-161.0","25401","20230235","common"
"896","false","hexagon,triangle","80","81,80","square,hexagon,triangle,circle,diamond","B","C","","","","test","81","true","1","categorize-html","266","561201","0.0-6.0-163.0","25401","20230235","rare"
"421","false","triangle","81","81,80","square,hexagon,triangle,circle,diamond","C","","","","","test","82","true","1","categorize-html","268","563126","0.0-6.0-165.0","25401","20230235","common"
"711","false","hexagon","80","81,80","square,hexagon,triangle,circle,diamond","B","","","","","test","83","true","1","categorize-html","270","565341","0.0-6.0-167.0","25401","20230235","rare"
"859","false","hexagon,square","81","81,80","square,hexagon,triangle,circle,diamond","B","A","","","","test","84","true","1","categorize-html","272","567704","0.0-6.0-169.0","25401","20230235","common"
"863.9999999998836","false","hexagon,triangle","80","81,80","square,hexagon,triangle,circle,diamond","B","C","","","","test","85","true","1","categorize-html","274","570071","0.0-6.0-171.0","25401","20230235","rare"
"949","false","square","81","81,80","square,hexagon,triangle,circle,diamond","A","","","","","test","86","true","1","categorize-html","276","572523","0.0-6.0-173.0","25401","20230235","common"
"1519","false","triangle,hexagon","80","81,80","square,hexagon,triangle,circle,diamond","C","B","","","","test","87","true","1","categorize-html","278","575546","0.0-6.0-175.0","25401","20230235","rare"
"756","false","hexagon","81","81,80","square,hexagon,triangle,circle,diamond","B","","","","","test","88","true","1","categorize-html","280","577805","0.0-6.0-177.0","25401","20230235","common"
"636.9999999998836","false","square","81","81,80","square,hexagon,triangle,circle,diamond","A","","","","","test","89","true","1","categorize-html","282","579944","0.0-6.0-179.0","25401","20230235","common"
"2192.0000000001164","false","triangle,square","80","81,80","square,hexagon,triangle,circle,diamond","C","A","","","","test","90","true","1","categorize-html","284","583641","0.0-6.0-181.0","25401","20230235","rare"
"808","false","hexagon","81","81,80","square,hexagon,triangle,circle,diamond","B","","","","","test","91","true","1","categorize-html","286","585952","0.0-6.0-183.0","25401","20230235","common"
"686","false","triangle","80","81,80","square,hexagon,triangle,circle,diamond","C","","","","","test","92","true","1","categorize-html","288","588142","0.0-6.0-185.0","25401","20230235","rare"
"805","false","square,hexagon","81","81,80","square,hexagon,triangle,circle,diamond","A","B","","","","test","93","true","1","categorize-html","290","590450","0.0-6.0-187.0","25401","20230235","common"
"1103","false","square,triangle","81","81,80","square,hexagon,triangle,circle,diamond","A","C","","","","test","94","true","1","categorize-html","292","593056","0.0-6.0-189.0","25401","20230235","common"
"701","false","hexagon,square","81","81,80","square,hexagon,triangle,circle,diamond","B","A","","","","test","95","true","1","categorize-html","294","595261","0.0-6.0-191.0","25401","20230235","common"
"418","false","triangle","81","81,80","square,hexagon,triangle,circle,diamond","C","","","","","test","96","true","1","categorize-html","296","597182","0.0-6.0-193.0","25401","20230235","common"
"816","false","square","81","81,80","square,hexagon,triangle,circle,diamond","A","","","","","test","97","true","1","categorize-html","299","601812","0.0-6.0-196.0","25401","20230235","common"
"385","false","hexagon,triangle","81","81,80","square,hexagon,triangle,circle,diamond","B","C","","","","test","98","true","1","categorize-html","301","603699","0.0-6.0-198.0","25401","20230235","common"
"513.0000000001164","false","hexagon,square","81","81,80","square,hexagon,triangle,circle,diamond","B","A","","","","test","99","true","1","categorize-html","303","605716","0.0-6.0-200.0","25401","20230235","common"
"314","false","triangle,square","80","81,80","square,hexagon,triangle,circle,diamond","C","A","","","","test","100","true","1","categorize-html","305","607533","0.0-6.0-202.0","25401","20230235","rare"
"397","false","hexagon","81","81,80","square,hexagon,triangle,circle,diamond","B","","","","","test","101","true","1","categorize-html","307","609433","0.0-6.0-204.0","25401","20230235","common"
"419.9999999998836","false","triangle,hexagon","80","81,80","square,hexagon,triangle,circle,diamond","C","B","","","","test","102","true","1","categorize-html","309","611356","0.0-6.0-206.0","25401","20230235","rare"
"378.9999999998836","false","triangle","81","81,80","square,hexagon,triangle,circle,diamond","C","","","","","test","103","true","1","categorize-html","311","613238","0.0-6.0-208.0","25401","20230235","common"
"462","false","square,triangle","80","81,80","square,hexagon,triangle,circle,diamond","A","C","","","","test","104","true","1","categorize-html","313","615204","0.0-6.0-210.0","25401","20230235","rare"
"270","false","hexagon","81","81,80","square,hexagon,triangle,circle,diamond","B","","","","","test","105","true","1","categorize-html","315","616977","0.0-6.0-212.0","25401","20230235","common"
"251","false","triangle","80","81,80","square,hexagon,triangle,circle,diamond","C","","","","","test","106","true","1","categorize-html","317","618732","0.0-6.0-214.0","25401","20230235","rare"
"371.9999999998836","false","square,hexagon","81","81,80","square,hexagon,triangle,circle,diamond","A","B","","","","test","107","true","1","categorize-html","319","620606","0.0-6.0-216.0","25401","20230235","common"
"532","false","square","81","81,80","square,hexagon,triangle,circle,diamond","A","","","","","test","108","true","1","categorize-html","321","622640","0.0-6.0-218.0","25401","20230235","common"
"537.0000000001164","false","hexagon,square","81","81,80","square,hexagon,triangle,circle,diamond","B","A","","","","test","109","true","1","categorize-html","323","624681","0.0-6.0-220.0","25401","20230235","common"
"319","false","square","80","81,80","square,hexagon,triangle,circle,diamond","A","","","","","test","110","true","1","categorize-html","325","626504","0.0-6.0-222.0","25401","20230235","rare"
"641.9999999998836","false","square,hexagon","81","81,80","square,hexagon,triangle,circle,diamond","A","B","","","","test","111","true","1","categorize-html","327","628649","0.0-6.0-224.0","25401","20230235","common"
"877","false","hexagon","81","81,80","square,hexagon,triangle,circle,diamond","B","","","","","test","112","true","1","categorize-html","329","631030","0.0-6.0-226.0","25401","20230235","common"
"462","false","triangle,square","80","81,80","square,hexagon,triangle,circle,diamond","C","A","","","","test","113","true","1","categorize-html","331","632996","0.0-6.0-228.0","25401","20230235","rare"
"519","false","hexagon,triangle","81","81,80","square,hexagon,triangle,circle,diamond","B","C","","","","test","114","true","1","categorize-html","333","635018","0.0-6.0-230.0","25401","20230235","common"
"504","false","triangle,hexagon","80","81,80","square,hexagon,triangle,circle,diamond","C","B","","","","test","115","true","1","categorize-html","335","637025","0.0-6.0-232.0","25401","20230235","rare"
"375","false","triangle","81","81,80","square,hexagon,triangle,circle,diamond","C","","","","","test","116","true","1","categorize-html","337","638903","0.0-6.0-234.0","25401","20230235","common"
"349.9999999998836","false","square","81","81,80","square,hexagon,triangle,circle,diamond","A","","","","","test","117","true","1","categorize-html","339","640756","0.0-6.0-236.0","25401","20230235","common"
"505","false","triangle","80","81,80","square,hexagon,triangle,circle,diamond","C","","","","","test","118","true","1","categorize-html","341","642764","0.0-6.0-238.0","25401","20230235","rare"
"634","false","square,triangle","80","81,80","square,hexagon,triangle,circle,diamond","A","C","","","","test","119","true","1","categorize-html","343","644901","0.0-6.0-240.0","25401","20230235","rare"
"778","false","hexagon","81","81,80","square,hexagon,triangle,circle,diamond","B","","","","","test","120","true","1","categorize-html","345","647182","0.0-6.0-242.0","25401","20230235","common"
