"rt","correct","stimulus","key_press","keys","symptoms_shuffle","symptom1","symptom2","symptom3","key","category","phase","trial","include","block","trial_type","trial_index","time_elapsed","internal_node_id","ppt","session","abresp"
"3580","false","square,circle,diamond","32","81,80","circle,diamond,triangle,square,hexagon","D","A","B","81","common","training","1","true","1","categorize-html","4","44959","0.0-4.0-0.0","25188","20230170","none"
"2793","false","square,diamond,circle","32","81,80","circle,diamond,triangle,square,hexagon","D","B","A","81","common","training","2","true","1","categorize-html","6","48758","0.0-4.0-2.0","25188","20230170","none"
"3148","false","diamond,square,circle","32","81,80","circle,diamond,triangle,square,hexagon","B","D","A","81","common","training","3","true","1","categorize-html","8","52913","0.0-4.0-4.0","25188","20230170","none"
"1415.9999999999927","false","square,circle,diamond","32","81,80","circle,diamond,triangle,square,hexagon","D","A","B","81","common","training","4","true","1","categorize-html","10","55335","0.0-4.0-6.0","25188","20230170","none"
"1645","false","circle,square,diamond","32","81,80","circle,diamond,triangle,square,hexagon","A","D","B","81","common","training","5","true","1","categorize-html","12","57985","0.0-4.0-8.0","25188","20230170","none"
"1175.0000000000073","false","diamond,square,circle","32","81,80","circle,diamond,triangle,square,hexagon","B","D","A","81","common","training","6","true","1","categorize-html","14","60166","0.0-4.0-10.0","25188","20230170","none"
"1312.9999999999927","false","circle,diamond,square","32","81,80","circle,diamond,triangle,square,hexagon","A","B","D","81","common","training","7","true","1","categorize-html","16","62484","0.0-4.0-12.0","25188","20230170","none"
"2462","false","circle,hexagon,triangle","32","81,80","circle,diamond,triangle,square,hexagon","A","E","C","80","rare","training","8","true","1","categorize-html","18","65952","0.0-4.0-14.0","25188","20230170","none"
"813","false","circle,triangle,hexagon","32","81,80","circle,diamond,triangle,square,hexagon","A","C","E","80","rare","training","9","true","1","categorize-html","20","67771","0.0-4.0-16.0","25188","20230170","none"
"827","false","square,diamond,circle","32","81,80","circle,diamond,triangle,square,hexagon","D","B","A","81","common","training","10","true","1","categorize-html","22","69603","0.0-4.0-18.0","25188","20230170","none"
"1336","false","hexagon,triangle,circle","32","81,80","circle,diamond,triangle,square,hexagon","E","C","A","80","rare","training","11","true","1","categorize-html","24","71946","0.0-4.0-20.0","25188","20230170","none"
"807","false","circle,square,diamond","32","81,80","circle,diamond,triangle,square,hexagon","A","D","B","81","common","training","12","true","1","categorize-html","26","73758","0.0-4.0-22.0","25188","20230170","none"
"727","false","circle,diamond,square","32","81,80","circle,diamond,triangle,square,hexagon","A","B","D","81","common","training","13","true","1","categorize-html","28","75491","0.0-4.0-24.0","25188","20230170","none"
"412","false","hexagon,circle,triangle","32","81,80","circle,diamond,triangle,square,hexagon","E","A","C","80","rare","training","14","true","1","categorize-html","30","76909","0.0-4.0-26.0","25188","20230170","none"
"527","false","square,circle,diamond","32","81,80","circle,diamond,triangle,square,hexagon","D","A","B","81","common","training","15","true","1","categorize-html","32","78441","0.0-4.0-28.0","25188","20230170","none"
"364","false","triangle,hexagon,circle","32","81,80","circle,diamond,triangle,square,hexagon","C","E","A","80","rare","training","16","true","1","categorize-html","34","79811","0.0-4.0-30.0","25188","20230170","none"
"451","false","circle,square,diamond","32","81,80","circle,diamond,triangle,square,hexagon","A","D","B","81","common","training","17","true","1","categorize-html","36","81267","0.0-4.0-32.0","25188","20230170","none"
"401","false","triangle,circle,hexagon","32","81,80","circle,diamond,triangle,square,hexagon","C","A","E","80","rare","training","18","true","1","categorize-html","38","82673","0.0-4.0-34.0","25188","20230170","none"
"501","false","diamond,circle,square","32","81,80","circle,diamond,triangle,square,hexagon","B","A","D","81","common","training","19","true","1","categorize-html","40","84180","0.0-4.0-36.0","25188","20230170","none"
"312","false","diamond,circle,square","32","81,80","circle,diamond,triangle,square,hexagon","B","A","D","81","common","training","20","true","1","categorize-html","42","85497","0.0-4.0-38.0","25188","20230170","none"
"1449","false","diamond,square,circle","32","81,80","circle,diamond,triangle,square,hexagon","B","D","A","81","common","training","21","true","1","categorize-html","44","87950","0.0-4.0-40.0","25188","20230170","none"
"512","false","circle,diamond,square","32","81,80","circle,diamond,triangle,square,hexagon","A","B","D","81","common","training","22","true","1","categorize-html","46","89467","0.0-4.0-42.0","25188","20230170","none"
"361.00000000001455","false","square,diamond,circle","32","81,80","circle,diamond,triangle,square,hexagon","D","B","A","81","common","training","23","true","1","categorize-html","48","90833","0.0-4.0-44.0","25188","20230170","none"
"462","false","diamond,circle,square","32","81,80","circle,diamond,triangle,square,hexagon","B","A","D","81","common","training","24","true","1","categorize-html","50","92301","0.0-4.0-46.0","25188","20230170","none"
"7736","false","triangle","81","81,80","circle,diamond,triangle,square,hexagon","C","","","","","test","1","true","1","categorize-html","54","145296","0.0-6.0-0.0","25188","20230170","common"
"7252","false","triangle","80","81,80","circle,diamond,triangle,square,hexagon","C","","","","","test","2","true","1","categorize-html","56","154054","0.0-6.0-2.0","25188","20230170","rare"
"1963.000000000029","false","diamond","81","81,80","circle,diamond,triangle,square,hexagon","B","","","","","test","3","true","1","categorize-html","58","157522","0.0-6.0-4.0","25188","20230170","common"
"3368","false","circle,triangle","80","81,80","circle,diamond,triangle,square,hexagon","A","C","","","","test","4","true","1","categorize-html","60","162395","0.0-6.0-6.0","25188","20230170","rare"
"6159","false","diamond,circle","81","81,80","circle,diamond,triangle,square,hexagon","B","A","","","","test","5","true","1","categorize-html","62","170060","0.0-6.0-8.0","25188","20230170","common"
"3478","false","diamond,triangle","80","81,80","circle,diamond,triangle,square,hexagon","B","C","","","","test","6","true","1","categorize-html","64","175044","0.0-6.0-10.0","25188","20230170","rare"
"2081","false","circle","81","81,80","circle,diamond,triangle,square,hexagon","A","","","","","test","7","true","1","categorize-html","66","178631","0.0-6.0-12.0","25188","20230170","common"
"1083","false","circle","80","81,80","circle,diamond,triangle,square,hexagon","A","","","","","test","8","true","1","categorize-html","68","181219","0.0-6.0-14.0","25188","20230170","rare"
"779.9999999999709","false","triangle,diamond","81","81,80","circle,diamond,triangle,square,hexagon","C","B","","","","test","9","true","1","categorize-html","70","183505","0.0-6.0-16.0","25188","20230170","common"
"628","false","triangle,circle","81","81,80","circle,diamond,triangle,square,hexagon","C","A","","","","test","10","true","1","categorize-html","72","185639","0.0-6.0-18.0","25188","20230170","common"
"1308","false","diamond","80","81,80","circle,diamond,triangle,square,hexagon","B","","","","","test","11","true","1","categorize-html","74","188453","0.0-6.0-20.0","25188","20230170","rare"
"686","false","circle,diamond","81","81,80","circle,diamond,triangle,square,hexagon","A","B","","","","test","12","true","1","categorize-html","76","190646","0.0-6.0-22.0","25188","20230170","common"
"2638.000000000029","false","diamond,circle","80","81,80","circle,diamond,triangle,square,hexagon","B","A","","","","test","13","true","1","categorize-html","78","194789","0.0-6.0-24.0","25188","20230170","rare"
"1780","false","diamond","81","81,80","circle,diamond,triangle,square,hexagon","B","","","","","test","14","true","1","categorize-html","80","198074","0.0-6.0-26.0","25188","20230170","common"
"5683","false","circle,diamond","80","81,80","circle,diamond,triangle,square,hexagon","A","B","","","","test","15","true","1","categorize-html","82","205263","0.0-6.0-28.0","25188","20230170","rare"
"1629","false","diamond,triangle","81","81,80","circle,diamond,triangle,square,hexagon","B","C","","","","test","16","true","1","categorize-html","84","208397","0.0-6.0-30.0","25188","20230170","common"
"1314","false","circle","81","81,80","circle,diamond,triangle,square,hexagon","A","","","","","test","17","true","1","categorize-html","86","211216","0.0-6.0-32.0","25188","20230170","common"
"930.0000000000291","false","circle","81","81,80","circle,diamond,triangle,square,hexagon","A","","","","","test","18","true","1","categorize-html","88","213651","0.0-6.0-34.0","25188","20230170","common"
"1079.000000000029","false","triangle","80","81,80","circle,diamond,triangle,square,hexagon","C","","","","","test","19","true","1","categorize-html","90","216235","0.0-6.0-36.0","25188","20230170","rare"
"531.9999999999709","false","diamond","80","81,80","circle,diamond,triangle,square,hexagon","B","","","","","test","20","true","1","categorize-html","92","218273","0.0-6.0-38.0","25188","20230170","rare"
"692","false","triangle,diamond","81","81,80","circle,diamond,triangle,square,hexagon","C","B","","","","test","21","true","1","categorize-html","94","220471","0.0-6.0-40.0","25188","20230170","common"
"932","false","triangle,circle","80","81,80","circle,diamond,triangle,square,hexagon","C","A","","","","test","22","true","1","categorize-html","96","222908","0.0-6.0-42.0","25188","20230170","rare"
"994.9999999999709","false","triangle","80","81,80","circle,diamond,triangle,square,hexagon","C","","","","","test","23","true","1","categorize-html","98","225407","0.0-6.0-44.0","25188","20230170","rare"
"512","false","circle,triangle","81","81,80","circle,diamond,triangle,square,hexagon","A","C","","","","test","24","true","1","categorize-html","100","227424","0.0-6.0-46.0","25188","20230170","common"
"2617","false","triangle,diamond","81","81,80","circle,diamond,triangle,square,hexagon","C","B","","","","test","25","true","1","categorize-html","103","239882","0.0-6.0-49.0","25188","20230170","common"
"598.9999999999709","false","diamond","80","81,80","circle,diamond,triangle,square,hexagon","B","","","","","test","26","true","1","categorize-html","105","241987","0.0-6.0-51.0","25188","20230170","rare"
"625","false","circle,triangle","80","81,80","circle,diamond,triangle,square,hexagon","A","C","","","","test","27","true","1","categorize-html","107","244118","0.0-6.0-53.0","25188","20230170","rare"
"452","false","circle,diamond","81","81,80","circle,diamond,triangle,square,hexagon","A","B","","","","test","28","true","1","categorize-html","109","246075","0.0-6.0-55.0","25188","20230170","common"
"605","false","circle","80","81,80","circle,diamond,triangle,square,hexagon","A","","","","","test","29","true","1","categorize-html","111","248185","0.0-6.0-57.0","25188","20230170","rare"
"299.0000000000291","false","triangle","81","81,80","circle,diamond,triangle,square,hexagon","C","","","","","test","30","true","1","categorize-html","113","249990","0.0-6.0-59.0","25188","20230170","common"
"339.9999999999709","false","diamond","80","81,80","circle,diamond,triangle,square,hexagon","B","","","","","test","31","true","1","categorize-html","115","251835","0.0-6.0-61.0","25188","20230170","rare"
"363.9999999999709","false","diamond,triangle","81","81,80","circle,diamond,triangle,square,hexagon","B","C","","","","test","32","true","1","categorize-html","117","253704","0.0-6.0-63.0","25188","20230170","common"
"280","false","circle","80","81,80","circle,diamond,triangle,square,hexagon","A","","","","","test","33","true","1","categorize-html","119","255489","0.0-6.0-65.0","25188","20230170","rare"
"114","false","triangle,circle","81","81,80","circle,diamond,triangle,square,hexagon","C","A","","","","test","34","true","1","categorize-html","121","257108","0.0-6.0-67.0","25188","20230170","common"
"375","false","diamond,circle","80","81,80","circle,diamond,triangle,square,hexagon","B","A","","","","test","35","true","1","categorize-html","123","258989","0.0-6.0-69.0","25188","20230170","rare"
"302","false","triangle","81","81,80","circle,diamond,triangle,square,hexagon","C","","","","","test","36","true","1","categorize-html","125","260796","0.0-6.0-71.0","25188","20230170","common"
"307","false","circle,triangle","80","81,80","circle,diamond,triangle,square,hexagon","A","C","","","","test","37","true","1","categorize-html","127","262609","0.0-6.0-73.0","25188","20230170","rare"
"311.0000000000582","false","circle","81","81,80","circle,diamond,triangle,square,hexagon","A","","","","","test","38","true","1","categorize-html","129","264426","0.0-6.0-75.0","25188","20230170","common"
"284","false","triangle","80","81,80","circle,diamond,triangle,square,hexagon","C","","","","","test","39","true","1","categorize-html","131","266216","0.0-6.0-77.0","25188","20230170","rare"
"357","false","diamond","80","81,80","circle,diamond,triangle,square,hexagon","B","","","","","test","40","true","1","categorize-html","133","268078","0.0-6.0-79.0","25188","20230170","rare"
"580.0000000000582","false","diamond,circle","80","81,80","circle,diamond,triangle,square,hexagon","B","A","","","","test","41","true","1","categorize-html","135","270164","0.0-6.0-81.0","25188","20230170","rare"
"378","false","triangle,diamond","80","81,80","circle,diamond,triangle,square,hexagon","C","B","","","","test","42","true","1","categorize-html","137","272047","0.0-6.0-83.0","25188","20230170","rare"
"270","false","diamond","80","81,80","circle,diamond,triangle,square,hexagon","B","","","","","test","43","true","1","categorize-html","139","273822","0.0-6.0-85.0","25188","20230170","rare"
"291","false","triangle","80","81,80","circle,diamond,triangle,square,hexagon","C","","","","","test","44","true","1","categorize-html","141","275618","0.0-6.0-87.0","25188","20230170","rare"
"110","false","triangle,circle","80","81,80","circle,diamond,triangle,square,hexagon","C","A","","","","test","45","true","1","categorize-html","143","277234","0.0-6.0-89.0","25188","20230170","rare"
"447","false","circle","80","81,80","circle,diamond,triangle,square,hexagon","A","","","","","test","46","true","1","categorize-html","145","279187","0.0-6.0-91.0","25188","20230170","rare"
"244","false","diamond,triangle","80","81,80","circle,diamond,triangle,square,hexagon","B","C","","","","test","47","true","1","categorize-html","147","280935","0.0-6.0-93.0","25188","20230170","rare"
"465","false","circle,diamond","81","81,80","circle,diamond,triangle,square,hexagon","A","B","","","","test","48","true","1","categorize-html","149","282906","0.0-6.0-95.0","25188","20230170","common"
"1033","false","diamond,triangle","81","81,80","circle,diamond,triangle,square,hexagon","B","C","","","","test","49","true","1","categorize-html","152","287374","0.0-6.0-98.0","25188","20230170","common"
"4566","false","triangle","80","81,80","circle,diamond,triangle,square,hexagon","C","","","","","test","50","true","1","categorize-html","154","293444","0.0-6.0-100.0","25188","20230170","rare"
"496","false","diamond","81","81,80","circle,diamond,triangle,square,hexagon","B","","","","","test","51","true","1","categorize-html","156","295446","0.0-6.0-102.0","25188","20230170","common"
"578","false","diamond,circle","80","81,80","circle,diamond,triangle,square,hexagon","B","A","","","","test","52","true","1","categorize-html","158","297529","0.0-6.0-104.0","25188","20230170","rare"
"453","false","circle,triangle","81","81,80","circle,diamond,triangle,square,hexagon","A","C","","","","test","53","true","1","categorize-html","160","299488","0.0-6.0-106.0","25188","20230170","common"
"654","false","diamond","80","81,80","circle,diamond,triangle,square,hexagon","B","","","","","test","54","true","1","categorize-html","162","301647","0.0-6.0-108.0","25188","20230170","rare"
"581","false","circle","81","81,80","circle,diamond,triangle,square,hexagon","A","","","","","test","55","true","1","categorize-html","164","303734","0.0-6.0-110.0","25188","20230170","common"
"644.0000000000582","false","circle,diamond","80","81,80","circle,diamond,triangle,square,hexagon","A","B","","","","test","56","true","1","categorize-html","166","305883","0.0-6.0-112.0","25188","20230170","rare"
"447.0000000000582","false","triangle,diamond","81","81,80","circle,diamond,triangle,square,hexagon","C","B","","","","test","57","true","1","categorize-html","168","307835","0.0-6.0-114.0","25188","20230170","common"
"552","false","triangle,circle","80","81,80","circle,diamond,triangle,square,hexagon","C","A","","","","test","58","true","1","categorize-html","170","309893","0.0-6.0-116.0","25188","20230170","rare"
"473","false","circle","81","81,80","circle,diamond,triangle,square,hexagon","A","","","","","test","59","true","1","categorize-html","172","311872","0.0-6.0-118.0","25188","20230170","common"
"596","false","triangle","80","81,80","circle,diamond,triangle,square,hexagon","C","","","","","test","60","true","1","categorize-html","174","313973","0.0-6.0-120.0","25188","20230170","rare"
"479","false","circle","80","81,80","circle,diamond,triangle,square,hexagon","A","","","","","test","61","true","1","categorize-html","176","315957","0.0-6.0-122.0","25188","20230170","rare"
"746","false","circle,triangle","80","81,80","circle,diamond,triangle,square,hexagon","A","C","","","","test","62","true","1","categorize-html","178","318208","0.0-6.0-124.0","25188","20230170","rare"
"678","false","triangle,diamond","80","81,80","circle,diamond,triangle,square,hexagon","C","B","","","","test","63","true","1","categorize-html","180","320392","0.0-6.0-126.0","25188","20230170","rare"
"1681","false","diamond","80","81,80","circle,diamond,triangle,square,hexagon","B","","","","","test","64","true","1","categorize-html","182","323578","0.0-6.0-128.0","25188","20230170","rare"
"860.9999999999418","false","diamond,circle","80","81,80","circle,diamond,triangle,square,hexagon","B","A","","","","test","65","true","1","categorize-html","184","325946","0.0-6.0-130.0","25188","20230170","rare"
"444","false","circle","81","81,80","circle,diamond,triangle,square,hexagon","A","","","","","test","66","true","1","categorize-html","186","327896","0.0-6.0-132.0","25188","20230170","common"
"279","false","circle,diamond","80","81,80","circle,diamond,triangle,square,hexagon","A","B","","","","test","67","true","1","categorize-html","188","329680","0.0-6.0-134.0","25188","20230170","rare"
"464","false","triangle","80","81,80","circle,diamond,triangle,square,hexagon","C","","","","","test","68","true","1","categorize-html","190","331649","0.0-6.0-136.0","25188","20230170","rare"
"213","false","diamond","81","81,80","circle,diamond,triangle,square,hexagon","B","","","","","test","69","true","1","categorize-html","192","333367","0.0-6.0-138.0","25188","20230170","common"
"184","false","triangle","80","81,80","circle,diamond,triangle,square,hexagon","C","","","","","test","70","true","1","categorize-html","194","335056","0.0-6.0-140.0","25188","20230170","rare"
"291","false","triangle,circle","81","81,80","circle,diamond,triangle,square,hexagon","C","A","","","","test","71","true","1","categorize-html","196","336851","0.0-6.0-142.0","25188","20230170","common"
"665","false","diamond,triangle","80","81,80","circle,diamond,triangle,square,hexagon","B","C","","","","test","72","true","1","categorize-html","198","339021","0.0-6.0-144.0","25188","20230170","rare"
"631","false","diamond","81","81,80","circle,diamond,triangle,square,hexagon","B","","","","","test","73","true","1","categorize-html","201","343503","0.0-6.0-147.0","25188","20230170","common"
"251","false","triangle","81","81,80","circle,diamond,triangle,square,hexagon","C","","","","","test","74","true","1","categorize-html","203","345259","0.0-6.0-149.0","25188","20230170","common"
"74","false","diamond,triangle","80","81,80","circle,diamond,triangle,square,hexagon","B","C","","","","test","75","true","1","categorize-html","205","346838","0.0-6.0-151.0","25188","20230170","rare"
"403","false","triangle,circle","81","81,80","circle,diamond,triangle,square,hexagon","C","A","","","","test","76","true","1","categorize-html","207","348746","0.0-6.0-153.0","25188","20230170","common"
"275","false","diamond","80","81,80","circle,diamond,triangle,square,hexagon","B","","","","","test","77","true","1","categorize-html","209","350527","0.0-6.0-155.0","25188","20230170","rare"
"266","false","triangle,diamond","81","81,80","circle,diamond,triangle,square,hexagon","C","B","","","","test","78","true","1","categorize-html","211","352299","0.0-6.0-157.0","25188","20230170","common"
"191.0000000000582","false","circle,triangle","80","81,80","circle,diamond,triangle,square,hexagon","A","C","","","","test","79","true","1","categorize-html","213","353994","0.0-6.0-159.0","25188","20230170","rare"
"164","false","circle,diamond","81","81,80","circle,diamond,triangle,square,hexagon","A","B","","","","test","80","true","1","categorize-html","215","355664","0.0-6.0-161.0","25188","20230170","common"
"292","false","triangle","80","81,80","circle,diamond,triangle,square,hexagon","C","","","","","test","81","true","1","categorize-html","217","357461","0.0-6.0-163.0","25188","20230170","rare"
"297","false","circle","81","81,80","circle,diamond,triangle,square,hexagon","A","","","","","test","82","true","1","categorize-html","219","359264","0.0-6.0-165.0","25188","20230170","common"
"346","false","circle","80","81,80","circle,diamond,triangle,square,hexagon","A","","","","","test","83","true","1","categorize-html","221","361115","0.0-6.0-167.0","25188","20230170","rare"
"177","false","diamond,circle","81","81,80","circle,diamond,triangle,square,hexagon","B","A","","","","test","84","true","1","categorize-html","223","362798","0.0-6.0-169.0","25188","20230170","common"
"247.9999999999418","false","triangle,circle","80","81,80","circle,diamond,triangle,square,hexagon","C","A","","","","test","85","true","1","categorize-html","225","364552","0.0-6.0-171.0","25188","20230170","rare"
"265","false","diamond,triangle","81","81,80","circle,diamond,triangle,square,hexagon","B","C","","","","test","86","true","1","categorize-html","227","366322","0.0-6.0-173.0","25188","20230170","common"
"208","false","diamond","80","81,80","circle,diamond,triangle,square,hexagon","B","","","","","test","87","true","1","categorize-html","229","368036","0.0-6.0-175.0","25188","20230170","rare"
"330","false","triangle","81","81,80","circle,diamond,triangle,square,hexagon","C","","","","","test","88","true","1","categorize-html","231","369870","0.0-6.0-177.0","25188","20230170","common"
"495","false","circle","80","81,80","circle,diamond,triangle,square,hexagon","A","","","","","test","89","true","1","categorize-html","233","371871","0.0-6.0-179.0","25188","20230170","rare"
"677.0000000000582","false","circle,diamond","80","81,80","circle,diamond,triangle,square,hexagon","A","B","","","","test","90","true","1","categorize-html","235","374053","0.0-6.0-181.0","25188","20230170","rare"
"414.9999999999418","false","diamond,circle","80","81,80","circle,diamond,triangle,square,hexagon","B","A","","","","test","91","true","1","categorize-html","237","375974","0.0-6.0-183.0","25188","20230170","rare"
"376","false","triangle,diamond","81","81,80","circle,diamond,triangle,square,hexagon","C","B","","","","test","92","true","1","categorize-html","239","377855","0.0-6.0-185.0","25188","20230170","common"
"230","false","diamond","80","81,80","circle,diamond,triangle,square,hexagon","B","","","","","test","93","true","1","categorize-html","241","379590","0.0-6.0-187.0","25188","20230170","rare"
"484","false","circle","81","81,80","circle,diamond,triangle,square,hexagon","A","","","","","test","94","true","1","categorize-html","243","381579","0.0-6.0-189.0","25188","20230170","common"
"281","false","triangle","80","81,80","circle,diamond,triangle,square,hexagon","C","","","","","test","95","true","1","categorize-html","245","383364","0.0-6.0-191.0","25188","20230170","rare"
"125","false","circle,triangle","81","81,80","circle,diamond,triangle,square,hexagon","A","C","","","","test","96","true","1","categorize-html","247","384995","0.0-6.0-193.0","25188","20230170","common"
"811","false","diamond","81","81,80","circle,diamond,triangle,square,hexagon","B","","","","","test","97","true","1","categorize-html","250","388979","0.0-6.0-196.0","25188","20230170","common"
"129","false","diamond,triangle","80","81,80","circle,diamond,triangle,square,hexagon","B","C","","","","test","98","true","1","categorize-html","252","390614","0.0-6.0-198.0","25188","20230170","rare"
"295","false","circle,triangle","81","81,80","circle,diamond,triangle,square,hexagon","A","C","","","","test","99","true","1","categorize-html","254","392414","0.0-6.0-200.0","25188","20230170","common"
"497.9999999999418","false","triangle","80","81,80","circle,diamond,triangle,square,hexagon","C","","","","","test","100","true","1","categorize-html","256","394418","0.0-6.0-202.0","25188","20230170","rare"
"243","false","circle","81","81,80","circle,diamond,triangle,square,hexagon","A","","","","","test","101","true","1","categorize-html","258","396167","0.0-6.0-204.0","25188","20230170","common"
"320","false","diamond,circle","80","81,80","circle,diamond,triangle,square,hexagon","B","A","","","","test","102","true","1","categorize-html","260","397992","0.0-6.0-206.0","25188","20230170","rare"
"92","false","diamond","81","81,80","circle,diamond,triangle,square,hexagon","B","","","","","test","103","true","1","categorize-html","262","399589","0.0-6.0-208.0","25188","20230170","common"
"407","false","triangle,diamond","80","81,80","circle,diamond,triangle,square,hexagon","C","B","","","","test","104","true","1","categorize-html","264","401501","0.0-6.0-210.0","25188","20230170","rare"
"447","false","circle,diamond","81","81,80","circle,diamond,triangle,square,hexagon","A","B","","","","test","105","true","1","categorize-html","266","403454","0.0-6.0-212.0","25188","20230170","common"
"310","false","triangle,circle","80","81,80","circle,diamond,triangle,square,hexagon","C","A","","","","test","106","true","1","categorize-html","268","405270","0.0-6.0-214.0","25188","20230170","rare"
"432","false","triangle","81","81,80","circle,diamond,triangle,square,hexagon","C","","","","","test","107","true","1","categorize-html","270","407208","0.0-6.0-216.0","25188","20230170","common"
"210","false","circle","80","81,80","circle,diamond,triangle,square,hexagon","A","","","","","test","108","true","1","categorize-html","272","408924","0.0-6.0-218.0","25188","20230170","rare"
"261","false","diamond","81","81,80","circle,diamond,triangle,square,hexagon","B","","","","","test","109","true","1","categorize-html","274","410691","0.0-6.0-220.0","25188","20230170","common"
"200","false","diamond","80","81,80","circle,diamond,triangle,square,hexagon","B","","","","","test","110","true","1","categorize-html","276","412396","0.0-6.0-222.0","25188","20230170","rare"
"158","false","circle,triangle","81","81,80","circle,diamond,triangle,square,hexagon","A","C","","","","test","111","true","1","categorize-html","278","414060","0.0-6.0-224.0","25188","20230170","common"
"395","false","circle,diamond","80","81,80","circle,diamond,triangle,square,hexagon","A","B","","","","test","112","true","1","categorize-html","280","415960","0.0-6.0-226.0","25188","20230170","rare"
"330","false","triangle,diamond","81","81,80","circle,diamond,triangle,square,hexagon","C","B","","","","test","113","true","1","categorize-html","282","417796","0.0-6.0-228.0","25188","20230170","common"
"178.9999999999418","false","triangle","80","81,80","circle,diamond,triangle,square,hexagon","C","","","","","test","114","true","1","categorize-html","284","419480","0.0-6.0-230.0","25188","20230170","rare"
"245","false","diamond,circle","81","81,80","circle,diamond,triangle,square,hexagon","B","A","","","","test","115","true","1","categorize-html","286","421231","0.0-6.0-232.0","25188","20230170","common"
"296.0000000000582","false","triangle,circle","80","81,80","circle,diamond,triangle,square,hexagon","C","A","","","","test","116","true","1","categorize-html","288","423033","0.0-6.0-234.0","25188","20230170","rare"
"277","false","circle","81","81,80","circle,diamond,triangle,square,hexagon","A","","","","","test","117","true","1","categorize-html","290","424815","0.0-6.0-236.0","25188","20230170","common"
"836.0000000000582","false","circle","81","81,80","circle,diamond,triangle,square,hexagon","A","","","","","test","118","true","1","categorize-html","292","427158","0.0-6.0-238.0","25188","20230170","common"
"311.0000000000582","false","diamond,triangle","81","81,80","circle,diamond,triangle,square,hexagon","B","C","","","","test","119","true","1","categorize-html","294","428973","0.0-6.0-240.0","25188","20230170","common"
"506.9999999999418","false","triangle","80","81,80","circle,diamond,triangle,square,hexagon","C","","","","","test","120","true","1","categorize-html","296","430985","0.0-6.0-242.0","25188","20230170","rare"
