"rt","correct","stimulus","key_press","keys","symptoms_shuffle","symptom1","symptom2","symptom3","key","category","phase","trial","include","block","trial_type","trial_index","time_elapsed","internal_node_id","ppt","session","abresp"
"4698.29999999702","false","circle,square,hexagon","32","81,80","square,hexagon,triangle,circle,diamond","D","A","B","81","common","training","1","true","1","categorize-html","4","243470","0.0-4.0-0.0","24208","202302312","none"
"1959","false","hexagon,square,circle","32","81,80","square,hexagon,triangle,circle,diamond","B","A","D","81","common","training","2","true","1","categorize-html","6","246432","0.0-4.0-2.0","24208","202302312","none"
"1988.800000011921","false","square,hexagon,circle","32","81,80","square,hexagon,triangle,circle,diamond","A","B","D","81","common","training","3","true","1","categorize-html","8","249430","0.0-4.0-4.0","24208","202302312","none"
"2598.7999999970198","false","hexagon,circle,square","32","81,80","square,hexagon,triangle,circle,diamond","B","D","A","81","common","training","4","true","1","categorize-html","10","253037","0.0-4.0-6.0","24208","202302312","none"
"1675.9000000059605","false","square,hexagon,circle","32","81,80","square,hexagon,triangle,circle,diamond","A","B","D","81","common","training","5","true","1","categorize-html","12","255725","0.0-4.0-8.0","24208","202302312","none"
"1470","false","square,circle,hexagon","32","81,80","square,hexagon,triangle,circle,diamond","A","D","B","81","common","training","6","true","1","categorize-html","14","258208","0.0-4.0-10.0","24208","202302312","none"
"4319.20000000298","false","triangle,diamond,square","32","81,80","square,hexagon,triangle,circle,diamond","C","E","A","80","rare","training","7","true","1","categorize-html","16","263532","0.0-4.0-12.0","24208","202302312","none"
"2382","false","circle,hexagon,square","32","81,80","square,hexagon,triangle,circle,diamond","D","B","A","81","common","training","8","true","1","categorize-html","18","266925","0.0-4.0-14.0","24208","202302312","none"
"1686.699999988079","false","hexagon,square,circle","32","81,80","square,hexagon,triangle,circle,diamond","B","A","D","81","common","training","9","true","1","categorize-html","20","269624","0.0-4.0-16.0","24208","202302312","none"
"2104.7000000029802","false","circle,square,hexagon","32","81,80","square,hexagon,triangle,circle,diamond","D","A","B","81","common","training","10","true","1","categorize-html","22","272738","0.0-4.0-18.0","24208","202302312","none"
"1570.2000000029802","false","hexagon,square,circle","32","81,80","square,hexagon,triangle,circle,diamond","B","A","D","81","common","training","11","true","1","categorize-html","24","275321","0.0-4.0-20.0","24208","202302312","none"
"1783.199999988079","false","hexagon,circle,square","32","81,80","square,hexagon,triangle,circle,diamond","B","D","A","81","common","training","12","true","1","categorize-html","26","278116","0.0-4.0-22.0","24208","202302312","none"
"1678.9000000059605","false","circle,square,hexagon","32","81,80","square,hexagon,triangle,circle,diamond","D","A","B","81","common","training","13","true","1","categorize-html","28","280803","0.0-4.0-24.0","24208","202302312","none"
"2861.7000000029802","false","diamond,triangle,square","32","81,80","square,hexagon,triangle,circle,diamond","E","C","A","80","rare","training","14","true","1","categorize-html","30","284672","0.0-4.0-26.0","24208","202302312","none"
"2004.3999999910593","false","square,hexagon,circle","32","81,80","square,hexagon,triangle,circle,diamond","A","B","D","81","common","training","15","true","1","categorize-html","32","287686","0.0-4.0-28.0","24208","202302312","none"
"4600.899999991059","false","hexagon,circle,square","32","81,80","square,hexagon,triangle,circle,diamond","B","D","A","81","common","training","16","true","1","categorize-html","34","293290","0.0-4.0-30.0","24208","202302312","none"
"1590.4000000059605","false","circle,hexagon,square","32","81,80","square,hexagon,triangle,circle,diamond","D","B","A","81","common","training","17","true","1","categorize-html","36","295890","0.0-4.0-32.0","24208","202302312","none"
"3499.2000000029802","false","diamond,square,triangle","32","81,80","square,hexagon,triangle,circle,diamond","E","A","C","80","rare","training","18","true","1","categorize-html","38","300399","0.0-4.0-34.0","24208","202302312","none"
"2118.7999999970198","false","square,circle,hexagon","32","81,80","square,hexagon,triangle,circle,diamond","A","D","B","81","common","training","19","true","1","categorize-html","40","303531","0.0-4.0-36.0","24208","202302312","none"
"null","false","triangle,square,diamond","null","81,80","square,hexagon,triangle,circle,diamond","C","A","E","80","rare","training","20","true","1","categorize-html","42","309541","0.0-4.0-38.0","24208","202302312","none"
"1666.3999999910593","false","circle,hexagon,square","32","81,80","square,hexagon,triangle,circle,diamond","D","B","A","81","common","training","21","true","1","categorize-html","44","312216","0.0-4.0-40.0","24208","202302312","none"
"1932.2999999970198","false","square,diamond,triangle","32","81,80","square,hexagon,triangle,circle,diamond","A","E","C","80","rare","training","22","true","1","categorize-html","46","315160","0.0-4.0-42.0","24208","202302312","none"
"1958.0999999940395","false","square,triangle,diamond","32","81,80","square,hexagon,triangle,circle,diamond","A","C","E","80","rare","training","23","true","1","categorize-html","48","318131","0.0-4.0-44.0","24208","202302312","none"
"1440.7999999970198","false","square,circle,hexagon","32","81,80","square,hexagon,triangle,circle,diamond","A","D","B","81","common","training","24","true","1","categorize-html","50","320576","0.0-4.0-46.0","24208","202302312","none"
"8487.39999999106","false","hexagon,square","81","81,80","square,hexagon,triangle,circle,diamond","B","A","","","","test","1","true","1","categorize-html","54","413259","0.0-6.0-0.0","24208","202302312","common"
"5451.29999999702","false","hexagon","81","81,80","square,hexagon,triangle,circle,diamond","B","","","","","test","2","true","1","categorize-html","56","420217","0.0-6.0-2.0","24208","202302312","common"
"2457.9000000059605","false","hexagon","81","81,80","square,hexagon,triangle,circle,diamond","B","","","","","test","3","true","1","categorize-html","58","424184","0.0-6.0-4.0","24208","202302312","common"
"7864.600000008941","false","hexagon,triangle","80","81,80","square,hexagon,triangle,circle,diamond","B","C","","","","test","4","true","1","categorize-html","60","433559","0.0-6.0-6.0","24208","202302312","rare"
"6143.5","false","triangle","80","81,80","square,hexagon,triangle,circle,diamond","C","","","","","test","5","true","1","categorize-html","62","441209","0.0-6.0-8.0","24208","202302312","rare"
"2339.5","false","square","81","81,80","square,hexagon,triangle,circle,diamond","A","","","","","test","6","true","1","categorize-html","64","445059","0.0-6.0-10.0","24208","202302312","common"
"1981.300000011921","false","square","81","81,80","square,hexagon,triangle,circle,diamond","A","","","","","test","7","true","1","categorize-html","66","448551","0.0-6.0-12.0","24208","202302312","common"
"2737.3999999910593","false","triangle,square","80","81,80","square,hexagon,triangle,circle,diamond","C","A","","","","test","8","true","1","categorize-html","68","452798","0.0-6.0-14.0","24208","202302312","rare"
"1709.4000000059605","false","triangle","80","81,80","square,hexagon,triangle,circle,diamond","C","","","","","test","9","true","1","categorize-html","70","456014","0.0-6.0-16.0","24208","202302312","rare"
"1261.7000000029802","false","square,hexagon","81","81,80","square,hexagon,triangle,circle,diamond","A","B","","","","test","10","true","1","categorize-html","72","458785","0.0-6.0-18.0","24208","202302312","common"
"1649.3999999910593","false","square,triangle","80","81,80","square,hexagon,triangle,circle,diamond","A","C","","","","test","11","true","1","categorize-html","74","461941","0.0-6.0-20.0","24208","202302312","rare"
"1007.2999999970198","false","triangle,hexagon","80","81,80","square,hexagon,triangle,circle,diamond","C","B","","","","test","12","true","1","categorize-html","76","464458","0.0-6.0-22.0","24208","202302312","rare"
"9620.09999999404","false","triangle,hexagon","80","81,80","square,hexagon,triangle,circle,diamond","C","B","","","","test","13","true","1","categorize-html","78","475587","0.0-6.0-24.0","24208","202302312","rare"
"6467.29999999702","false","square","80","81,80","square,hexagon,triangle,circle,diamond","A","","","","","test","14","true","1","categorize-html","80","483562","0.0-6.0-26.0","24208","202302312","rare"
"2365.3999999910593","false","square,triangle","80","81,80","square,hexagon,triangle,circle,diamond","A","C","","","","test","15","true","1","categorize-html","82","487436","0.0-6.0-28.0","24208","202302312","rare"
"1421.199999988079","false","triangle","80","81,80","square,hexagon,triangle,circle,diamond","C","","","","","test","16","true","1","categorize-html","84","490368","0.0-6.0-30.0","24208","202302312","rare"
"1753.2000000029802","false","square","81","81,80","square,hexagon,triangle,circle,diamond","A","","","","","test","17","true","1","categorize-html","86","493634","0.0-6.0-32.0","24208","202302312","common"
"1950.800000011921","false","hexagon","81","81,80","square,hexagon,triangle,circle,diamond","B","","","","","test","18","true","1","categorize-html","88","497093","0.0-6.0-34.0","24208","202302312","common"
"2054.7000000029802","false","hexagon,square","81","81,80","square,hexagon,triangle,circle,diamond","B","A","","","","test","19","true","1","categorize-html","90","500660","0.0-6.0-36.0","24208","202302312","common"
"1087.4000000059605","false","triangle","80","81,80","square,hexagon,triangle,circle,diamond","C","","","","","test","20","true","1","categorize-html","92","503257","0.0-6.0-38.0","24208","202302312","rare"
"1015.7999999970198","false","hexagon","81","81,80","square,hexagon,triangle,circle,diamond","B","","","","","test","21","true","1","categorize-html","94","505781","0.0-6.0-40.0","24208","202302312","common"
"1407.2000000029802","false","triangle,square","80","81,80","square,hexagon,triangle,circle,diamond","C","A","","","","test","22","true","1","categorize-html","96","508699","0.0-6.0-42.0","24208","202302312","rare"
"7857.100000008941","false","hexagon,triangle","80","81,80","square,hexagon,triangle,circle,diamond","B","C","","","","test","23","true","1","categorize-html","98","518061","0.0-6.0-44.0","24208","202302312","rare"
"2529.9000000059605","false","square,hexagon","81","81,80","square,hexagon,triangle,circle,diamond","A","B","","","","test","24","true","1","categorize-html","100","522098","0.0-6.0-46.0","24208","202302312","common"
"4787.79999999702","false","square,triangle","80","81,80","square,hexagon,triangle,circle,diamond","A","C","","","","test","25","true","1","categorize-html","103","566618","0.0-6.0-49.0","24208","202302312","rare"
"1651.2000000029802","false","square","80","81,80","square,hexagon,triangle,circle,diamond","A","","","","","test","26","true","1","categorize-html","105","569782","0.0-6.0-51.0","24208","202302312","rare"
"4738.0999999940395","false","square","81","81,80","square,hexagon,triangle,circle,diamond","A","","","","","test","27","true","1","categorize-html","107","576031","0.0-6.0-53.0","24208","202302312","common"
"2673.5","false","hexagon","81","81,80","square,hexagon,triangle,circle,diamond","B","","","","","test","28","true","1","categorize-html","109","580210","0.0-6.0-55.0","24208","202302312","common"
"685.0999999940395","false","hexagon","81","81,80","square,hexagon,triangle,circle,diamond","B","","","","","test","29","true","1","categorize-html","111","582407","0.0-6.0-57.0","24208","202302312","common"
"941.2000000029802","false","triangle","80","81,80","square,hexagon,triangle,circle,diamond","C","","","","","test","30","true","1","categorize-html","113","584858","0.0-6.0-59.0","24208","202302312","rare"
"1716.2999999970198","false","hexagon,square","81","81,80","square,hexagon,triangle,circle,diamond","B","A","","","","test","31","true","1","categorize-html","115","588086","0.0-6.0-61.0","24208","202302312","common"
"910.8999999910593","false","square,hexagon","81","81,80","square,hexagon,triangle,circle,diamond","A","B","","","","test","32","true","1","categorize-html","117","590508","0.0-6.0-63.0","24208","202302312","common"
"6492","false","hexagon,triangle","80","81,80","square,hexagon,triangle,circle,diamond","B","C","","","","test","33","true","1","categorize-html","119","598505","0.0-6.0-65.0","24208","202302312","rare"
"1591.7999999970198","false","triangle,hexagon","80","81,80","square,hexagon,triangle,circle,diamond","C","B","","","","test","34","true","1","categorize-html","121","601609","0.0-6.0-67.0","24208","202302312","rare"
"1385.7999999970198","false","triangle,square","80","81,80","square,hexagon,triangle,circle,diamond","C","A","","","","test","35","true","1","categorize-html","123","604503","0.0-6.0-69.0","24208","202302312","rare"
"1190.5999999940395","false","triangle","80","81,80","square,hexagon,triangle,circle,diamond","C","","","","","test","36","true","1","categorize-html","125","607203","0.0-6.0-71.0","24208","202302312","rare"
"1375.7999999970198","false","triangle,square","80","81,80","square,hexagon,triangle,circle,diamond","C","A","","","","test","37","true","1","categorize-html","127","610086","0.0-6.0-73.0","24208","202302312","rare"
"804.6000000089407","false","triangle","80","81,80","square,hexagon,triangle,circle,diamond","C","","","","","test","38","true","1","categorize-html","129","612398","0.0-6.0-75.0","24208","202302312","rare"
"1563.8999999910593","false","square,hexagon","81","81,80","square,hexagon,triangle,circle,diamond","A","B","","","","test","39","true","1","categorize-html","131","615469","0.0-6.0-77.0","24208","202302312","common"
"1864.9000000059605","false","hexagon,triangle","80","81,80","square,hexagon,triangle,circle,diamond","B","C","","","","test","40","true","1","categorize-html","133","618844","0.0-6.0-79.0","24208","202302312","rare"
"2219.6000000089407","false","square","80","81,80","square,hexagon,triangle,circle,diamond","A","","","","","test","41","true","1","categorize-html","135","622575","0.0-6.0-81.0","24208","202302312","rare"
"1191.4000000059605","false","square,triangle","80","81,80","square,hexagon,triangle,circle,diamond","A","C","","","","test","42","true","1","categorize-html","137","625276","0.0-6.0-83.0","24208","202302312","rare"
"895.2000000029802","false","hexagon","81","81,80","square,hexagon,triangle,circle,diamond","B","","","","","test","43","true","1","categorize-html","139","627676","0.0-6.0-85.0","24208","202302312","common"
"1130.7999999970198","false","triangle,hexagon","80","81,80","square,hexagon,triangle,circle,diamond","C","B","","","","test","44","true","1","categorize-html","141","630320","0.0-6.0-87.0","24208","202302312","rare"
"682.7000000029802","false","triangle","80","81,80","square,hexagon,triangle,circle,diamond","C","","","","","test","45","true","1","categorize-html","143","632513","0.0-6.0-89.0","24208","202302312","rare"
"1586.2999999970198","false","hexagon","81","81,80","square,hexagon,triangle,circle,diamond","B","","","","","test","46","true","1","categorize-html","145","635608","0.0-6.0-91.0","24208","202302312","common"
"1179.2999999970198","false","square","81","81,80","square,hexagon,triangle,circle,diamond","A","","","","","test","47","true","1","categorize-html","147","638293","0.0-6.0-93.0","24208","202302312","common"
"1034.0999999940395","false","hexagon,square","81","81,80","square,hexagon,triangle,circle,diamond","B","A","","","","test","48","true","1","categorize-html","149","640836","0.0-6.0-95.0","24208","202302312","common"
"1661.7999999970198","false","square","81","81,80","square,hexagon,triangle,circle,diamond","A","","","","","test","49","true","1","categorize-html","152","646597","0.0-6.0-98.0","24208","202302312","common"
"1989.7999999970198","false","square,hexagon","81","81,80","square,hexagon,triangle,circle,diamond","A","B","","","","test","50","true","1","categorize-html","154","650095","0.0-6.0-100.0","24208","202302312","common"
"1073.2000000029802","false","square,triangle","80","81,80","square,hexagon,triangle,circle,diamond","A","C","","","","test","51","true","1","categorize-html","156","652676","0.0-6.0-102.0","24208","202302312","rare"
"794.0999999940395","false","hexagon,triangle","80","81,80","square,hexagon,triangle,circle,diamond","B","C","","","","test","52","true","1","categorize-html","158","654982","0.0-6.0-104.0","24208","202302312","rare"
"675","false","triangle","80","81,80","square,hexagon,triangle,circle,diamond","C","","","","","test","53","true","1","categorize-html","160","657167","0.0-6.0-106.0","24208","202302312","rare"
"600","false","triangle,square","80","81,80","square,hexagon,triangle,circle,diamond","C","A","","","","test","54","true","1","categorize-html","162","659275","0.0-6.0-108.0","24208","202302312","rare"
"787.7000000029802","false","hexagon","81","81,80","square,hexagon,triangle,circle,diamond","B","","","","","test","55","true","1","categorize-html","164","661570","0.0-6.0-110.0","24208","202302312","common"
"889.5","false","hexagon,square","81","81,80","square,hexagon,triangle,circle,diamond","B","A","","","","test","56","true","1","categorize-html","166","663970","0.0-6.0-112.0","24208","202302312","common"
"618.5","false","triangle","80","81,80","square,hexagon,triangle,circle,diamond","C","","","","","test","57","true","1","categorize-html","168","666098","0.0-6.0-114.0","24208","202302312","rare"
"834.7999999970198","false","square","81","81,80","square,hexagon,triangle,circle,diamond","A","","","","","test","58","true","1","categorize-html","170","668443","0.0-6.0-116.0","24208","202302312","common"
"928.6000000089407","false","triangle,hexagon","80","81,80","square,hexagon,triangle,circle,diamond","C","B","","","","test","59","true","1","categorize-html","172","670883","0.0-6.0-118.0","24208","202302312","rare"
"741.5","false","hexagon","81","81,80","square,hexagon,triangle,circle,diamond","B","","","","","test","60","true","1","categorize-html","174","673135","0.0-6.0-120.0","24208","202302312","common"
"715.7999999970198","false","square,triangle","80","81,80","square,hexagon,triangle,circle,diamond","A","C","","","","test","61","true","1","categorize-html","176","675358","0.0-6.0-122.0","24208","202302312","rare"
"1999.300000011921","false","triangle","80","81,80","square,hexagon,triangle,circle,diamond","C","","","","","test","62","true","1","categorize-html","178","678862","0.0-6.0-124.0","24208","202302312","rare"
"859.0999999940395","false","hexagon","81","81,80","square,hexagon,triangle,circle,diamond","B","","","","","test","63","true","1","categorize-html","180","681229","0.0-6.0-126.0","24208","202302312","common"
"608","false","hexagon,square","81","81,80","square,hexagon,triangle,circle,diamond","B","A","","","","test","64","true","1","categorize-html","182","683345","0.0-6.0-128.0","24208","202302312","common"
"3104.7000000029802","false","hexagon","80","81,80","square,hexagon,triangle,circle,diamond","B","","","","","test","65","true","1","categorize-html","184","687957","0.0-6.0-130.0","24208","202302312","rare"
"667.5999999940395","false","square","81","81,80","square,hexagon,triangle,circle,diamond","A","","","","","test","66","true","1","categorize-html","186","690133","0.0-6.0-132.0","24208","202302312","common"
"724.2999999970198","false","triangle,hexagon","80","81,80","square,hexagon,triangle,circle,diamond","C","B","","","","test","67","true","1","categorize-html","188","692366","0.0-6.0-134.0","24208","202302312","rare"
"1316","false","triangle,square","80","81,80","square,hexagon,triangle,circle,diamond","C","A","","","","test","68","true","1","categorize-html","190","695191","0.0-6.0-136.0","24208","202302312","rare"
"1729.1000000089407","false","hexagon,triangle","80","81,80","square,hexagon,triangle,circle,diamond","B","C","","","","test","69","true","1","categorize-html","192","698429","0.0-6.0-138.0","24208","202302312","rare"
"773.7999999970198","false","square","81","81,80","square,hexagon,triangle,circle,diamond","A","","","","","test","70","true","1","categorize-html","194","700709","0.0-6.0-140.0","24208","202302312","common"
"1076.8999999910593","false","square,hexagon","81","81,80","square,hexagon,triangle,circle,diamond","A","B","","","","test","71","true","1","categorize-html","196","703293","0.0-6.0-142.0","24208","202302312","common"
"667.9000000059605","false","triangle","80","81,80","square,hexagon,triangle,circle,diamond","C","","","","","test","72","true","1","categorize-html","198","705470","0.0-6.0-144.0","24208","202302312","rare"
"1507.1000000089407","false","square","81","81,80","square,hexagon,triangle,circle,diamond","A","","","","","test","73","true","1","categorize-html","201","710598","0.0-6.0-147.0","24208","202302312","common"
"652.4000000059605","false","square","81","81,80","square,hexagon,triangle,circle,diamond","A","","","","","test","74","true","1","categorize-html","203","712762","0.0-6.0-149.0","24208","202302312","common"
"2666.7999999970198","false","hexagon,triangle","80","81,80","square,hexagon,triangle,circle,diamond","B","C","","","","test","75","true","1","categorize-html","205","716937","0.0-6.0-151.0","24208","202302312","rare"
"653.7999999970198","false","triangle","80","81,80","square,hexagon,triangle,circle,diamond","C","","","","","test","76","true","1","categorize-html","207","719103","0.0-6.0-153.0","24208","202302312","rare"
"1738.2000000029802","false","triangle,square","80","81,80","square,hexagon,triangle,circle,diamond","C","A","","","","test","77","true","1","categorize-html","209","722354","0.0-6.0-155.0","24208","202302312","rare"
"2243.2000000029802","false","hexagon","81","81,80","square,hexagon,triangle,circle,diamond","B","","","","","test","78","true","1","categorize-html","211","726108","0.0-6.0-157.0","24208","202302312","common"
"846.8999999910593","false","triangle","80","81,80","square,hexagon,triangle,circle,diamond","C","","","","","test","79","true","1","categorize-html","213","728463","0.0-6.0-159.0","24208","202302312","rare"
"986.2000000029802","false","triangle,hexagon","80","81,80","square,hexagon,triangle,circle,diamond","C","B","","","","test","80","true","1","categorize-html","215","730961","0.0-6.0-161.0","24208","202302312","rare"
"574.1999999880791","false","hexagon,square","80","81,80","square,hexagon,triangle,circle,diamond","B","A","","","","test","81","true","1","categorize-html","217","733042","0.0-6.0-163.0","24208","202302312","rare"
"735.0999999940395","false","hexagon","81","81,80","square,hexagon,triangle,circle,diamond","B","","","","","test","82","true","1","categorize-html","219","735287","0.0-6.0-165.0","24208","202302312","common"
"904.0999999940395","false","square,triangle","80","81,80","square,hexagon,triangle,circle,diamond","A","C","","","","test","83","true","1","categorize-html","221","737703","0.0-6.0-167.0","24208","202302312","rare"
"1037.4000000059605","false","square,hexagon","81","81,80","square,hexagon,triangle,circle,diamond","A","B","","","","test","84","true","1","categorize-html","223","740248","0.0-6.0-169.0","24208","202302312","common"
"556.9000000059605","false","triangle","80","81,80","square,hexagon,triangle,circle,diamond","C","","","","","test","85","true","1","categorize-html","225","742317","0.0-6.0-171.0","24208","202302312","rare"
"1394","false","hexagon,square","81","81,80","square,hexagon,triangle,circle,diamond","B","A","","","","test","86","true","1","categorize-html","227","745221","0.0-6.0-173.0","24208","202302312","common"
"803","false","hexagon,triangle","80","81,80","square,hexagon,triangle,circle,diamond","B","C","","","","test","87","true","1","categorize-html","229","747534","0.0-6.0-175.0","24208","202302312","rare"
"1658.7000000029802","false","triangle,hexagon","80","81,80","square,hexagon,triangle,circle,diamond","C","B","","","","test","88","true","1","categorize-html","231","750701","0.0-6.0-177.0","24208","202302312","rare"
"861.9000000059605","false","square","81","81,80","square,hexagon,triangle,circle,diamond","A","","","","","test","89","true","1","categorize-html","233","753071","0.0-6.0-179.0","24208","202302312","common"
"778.1999999880791","false","triangle","80","81,80","square,hexagon,triangle,circle,diamond","C","","","","","test","90","true","1","categorize-html","235","755361","0.0-6.0-181.0","24208","202302312","rare"
"598.7999999970198","false","square,triangle","80","81,80","square,hexagon,triangle,circle,diamond","A","C","","","","test","91","true","1","categorize-html","237","757471","0.0-6.0-183.0","24208","202302312","rare"
"764.1000000089407","false","square","81","81,80","square,hexagon,triangle,circle,diamond","A","","","","","test","92","true","1","categorize-html","239","759745","0.0-6.0-185.0","24208","202302312","common"
"1019.7999999970198","false","hexagon","81","81,80","square,hexagon,triangle,circle,diamond","B","","","","","test","93","true","1","categorize-html","241","762274","0.0-6.0-187.0","24208","202302312","common"
"519","false","hexagon","81","81,80","square,hexagon,triangle,circle,diamond","B","","","","","test","94","true","1","categorize-html","243","764299","0.0-6.0-189.0","24208","202302312","common"
"957.0999999940395","false","square,hexagon","81","81,80","square,hexagon,triangle,circle,diamond","A","B","","","","test","95","true","1","categorize-html","245","766768","0.0-6.0-191.0","24208","202302312","common"
"678.7999999970198","false","triangle,square","80","81,80","square,hexagon,triangle,circle,diamond","C","A","","","","test","96","true","1","categorize-html","247","768954","0.0-6.0-193.0","24208","202302312","rare"
"727.0999999940395","false","triangle,square","80","81,80","square,hexagon,triangle,circle,diamond","C","A","","","","test","97","true","1","categorize-html","250","774293","0.0-6.0-196.0","24208","202302312","rare"
"610.2000000029802","false","triangle","80","81,80","square,hexagon,triangle,circle,diamond","C","","","","","test","98","true","1","categorize-html","252","776415","0.0-6.0-198.0","24208","202302312","rare"
"976.0999999940395","false","square","81","81,80","square,hexagon,triangle,circle,diamond","A","","","","","test","99","true","1","categorize-html","254","778902","0.0-6.0-200.0","24208","202302312","common"
"560.7000000029802","false","hexagon,square","81","81,80","square,hexagon,triangle,circle,diamond","B","A","","","","test","100","true","1","categorize-html","256","780971","0.0-6.0-202.0","24208","202302312","common"
"845.5999999940395","false","hexagon,triangle","80","81,80","square,hexagon,triangle,circle,diamond","B","C","","","","test","101","true","1","categorize-html","258","783329","0.0-6.0-204.0","24208","202302312","rare"
"2238.9000000059605","false","hexagon","81","81,80","square,hexagon,triangle,circle,diamond","B","","","","","test","102","true","1","categorize-html","260","787071","0.0-6.0-206.0","24208","202302312","common"
"663.9000000059605","false","triangle,hexagon","80","81,80","square,hexagon,triangle,circle,diamond","C","B","","","","test","103","true","1","categorize-html","262","789244","0.0-6.0-208.0","24208","202302312","rare"
"1019.5999999940395","false","hexagon","81","81,80","square,hexagon,triangle,circle,diamond","B","","","","","test","104","true","1","categorize-html","264","791771","0.0-6.0-210.0","24208","202302312","common"
"537.1000000089407","false","triangle","80","81,80","square,hexagon,triangle,circle,diamond","C","","","","","test","105","true","1","categorize-html","266","793821","0.0-6.0-212.0","24208","202302312","rare"
"877","false","square","81","81,80","square,hexagon,triangle,circle,diamond","A","","","","","test","106","true","1","categorize-html","268","796209","0.0-6.0-214.0","24208","202302312","common"
"585","false","square,hexagon","81","81,80","square,hexagon,triangle,circle,diamond","A","B","","","","test","107","true","1","categorize-html","270","798301","0.0-6.0-216.0","24208","202302312","common"
"745.4000000059605","false","square,triangle","80","81,80","square,hexagon,triangle,circle,diamond","A","C","","","","test","108","true","1","categorize-html","272","800554","0.0-6.0-218.0","24208","202302312","rare"
"729.9000000059605","false","square,triangle","80","81,80","square,hexagon,triangle,circle,diamond","A","C","","","","test","109","true","1","categorize-html","274","802795","0.0-6.0-220.0","24208","202302312","rare"
"546.7000000029802","false","triangle","80","81,80","square,hexagon,triangle,circle,diamond","C","","","","","test","110","true","1","categorize-html","276","804850","0.0-6.0-222.0","24208","202302312","rare"
"575","false","hexagon,square","81","81,80","square,hexagon,triangle,circle,diamond","B","A","","","","test","111","true","1","categorize-html","278","806932","0.0-6.0-224.0","24208","202302312","common"
"2346.9000000059605","false","hexagon","81","81,80","square,hexagon,triangle,circle,diamond","B","","","","","test","112","true","1","categorize-html","280","810788","0.0-6.0-226.0","24208","202302312","common"
"679.4000000059605","false","hexagon,triangle","80","81,80","square,hexagon,triangle,circle,diamond","B","C","","","","test","113","true","1","categorize-html","282","812975","0.0-6.0-228.0","24208","202302312","rare"
"605.3000000119209","false","square","81","81,80","square,hexagon,triangle,circle,diamond","A","","","","","test","114","true","1","categorize-html","284","815088","0.0-6.0-230.0","24208","202302312","common"
"611","false","square,hexagon","81","81,80","square,hexagon,triangle,circle,diamond","A","B","","","","test","115","true","1","categorize-html","286","817210","0.0-6.0-232.0","24208","202302312","common"
"629.9000000059605","false","triangle,hexagon","80","81,80","square,hexagon,triangle,circle,diamond","C","B","","","","test","116","true","1","categorize-html","288","819353","0.0-6.0-234.0","24208","202302312","rare"
"553","false","triangle,square","80","81,80","square,hexagon,triangle,circle,diamond","C","A","","","","test","117","true","1","categorize-html","290","821414","0.0-6.0-236.0","24208","202302312","rare"
"846","false","triangle","80","81,80","square,hexagon,triangle,circle,diamond","C","","","","","test","118","true","1","categorize-html","292","823771","0.0-6.0-238.0","24208","202302312","rare"
"501.90000000596046","false","hexagon","81","81,80","square,hexagon,triangle,circle,diamond","B","","","","","test","119","true","1","categorize-html","294","825784","0.0-6.0-240.0","24208","202302312","common"
"1975.6000000089407","false","square","81","81,80","square,hexagon,triangle,circle,diamond","A","","","","","test","120","true","1","categorize-html","296","829268","0.0-6.0-242.0","24208","202302312","common"
